prolific_id,condition,view_history,rt,run_id,trial_type,trial_index,time_elapsed,device,success,timeout,failed_images,failed_audio,failed_video,stimulus,response,exemplar_name,exemplar_img,extension_left_img,extension_center_img,extension_right_img,question_order,slider_start
143,37,"[{""page_index"":0,""viewing_time"":2411}]",2412,1,instructions,0,2413,Macintosh,NA,NA,NA,NA,NA,NA,NA,NA,NA,NA,NA,NA,NA,NA
143,37,NA,NA,1,fullscreen,1,4775,Macintosh,TRUE,NA,NA,NA,NA,NA,NA,NA,NA,NA,NA,NA,NA,NA
143,37,"[{""page_index"":0,""viewing_time"":1184}]",1185,1,instructions,2,5961,Macintosh,NA,NA,NA,NA,NA,NA,NA,NA,NA,NA,NA,NA,NA,NA
143,37,NA,NA,1,preload,3,7400,Macintosh,TRUE,FALSE,[],[],[],NA,NA,NA,NA,NA,NA,NA,NA,NA
143,37,NA,null,1,html-button-response,4,12403,Macintosh,NA,NA,NA,NA,NA,"<p>This is a coba.</p> 
<img src=""red_crepe_snowman_exemplar.png"" height=""300"" width=""300""></img>",null,coba,red_crepe_snowman_exemplar.png,NA,NA,NA,NA,NA
143,37,NA,NA,1,preload,5,12406,Macintosh,TRUE,FALSE,[],[],[],NA,NA,NA,NA,NA,NA,NA,NA,NA
143,37,NA,3266,1,html-button-response,6,15673,Macintosh,NA,NA,NA,NA,NA,"<p>This is a coba.</p> 
<img src=""red_crepe_snowman_exemplar.png"" height=""300"" width=""300""></img>
<p>One of these is also a coba.</p>",1,NA,NA,red_foam_arch_extension.png,yellow_yarn_snowman_extension.png,blue_crepe_lamp_extension.png,NA,NA
143,37,NA,7089,1,survey-text,7,22764,Macintosh,NA,NA,NA,NA,NA,NA,"{""extensionLeftImg_exemplar_commonalities"":""the color red""}",NA,red_crepe_snowman_exemplar.png,red_foam_arch_extension.png,NA,NA,NA,NA
143,37,NA,6140,1,survey-text,8,28906,Macintosh,NA,NA,NA,NA,NA,NA,"{""extensionCenterImg_exemplar_commonalities"":""their shape""}",NA,red_crepe_snowman_exemplar.png,NA,yellow_yarn_snowman_extension.png,NA,NA,NA
143,37,NA,14100,1,survey-text,9,43006,Macintosh,NA,NA,NA,NA,NA,NA,"{""extensionRightImg_exemplar_commonalities"":""the material they are made out of""}",NA,red_crepe_snowman_exemplar.png,NA,NA,blue_crepe_lamp_extension.png,NA,NA
143,37,"[{""page_index"":0,""viewing_time"":2653}]",2653,1,instructions,10,45661,Macintosh,NA,NA,NA,NA,NA,NA,NA,NA,NA,NA,NA,NA,NA,NA
143,37,NA,2357,1,survey-text,11,48027,Macintosh,NA,NA,NA,NA,NA,NA,"{""Age"":""20""}",NA,NA,NA,NA,NA,NA,NA
143,37,NA,6057,1,survey-multi-choice,12,54086,Macintosh,NA,NA,NA,NA,NA,NA,"{""BornUSA"":""Yes"",""ChildhoodUSA"":""Yes"",""CurrentUSA"":""Yes""}",NA,NA,NA,NA,NA,"[0,1,2]",NA
143,37,NA,20702,1,survey-text,13,74803,Macintosh,NA,NA,NA,NA,NA,NA,"{""CurrentZipcode"":""352"",""ChildhoodZipcode"":""352""}",NA,NA,NA,NA,NA,NA,NA
143,37,NA,7738,1,survey-text,14,82549,Macintosh,NA,NA,NA,NA,NA,NA,"{""FirstLanguage"":""English"",""AllLanguages"":""English""}",NA,NA,NA,NA,NA,NA,NA
143,37,NA,8267,1,html-slider-response,15,90817,Macintosh,NA,NA,NA,NA,NA,<p>How would you describe the location <b>where you currently live</b>?</p>,67,NA,NA,NA,NA,NA,NA,50
143,37,NA,8119,1,html-slider-response,16,98938,Macintosh,NA,NA,NA,NA,NA,"<p>How would you describe the location <b>where you grew up</b> (if multiple, choose the one that you spent the most time in before 18 years old)?</p>",62,NA,NA,NA,NA,NA,NA,50
143,37,"[{""page_index"":0,""viewing_time"":10423}]",10423,1,instructions,17,109365,Macintosh,NA,NA,NA,NA,NA,NA,NA,NA,NA,NA,NA,NA,NA,NA
303,48,"[{""page_index"":0,""viewing_time"":3334}]",3334,10,instructions,0,3335,WebKit,NA,NA,NA,NA,NA,NA,NA,NA,NA,NA,NA,NA,NA,NA
303,48,NA,NA,10,fullscreen,1,6344,WebKit,TRUE,NA,NA,NA,NA,NA,NA,NA,NA,NA,NA,NA,NA,NA
303,48,"[{""page_index"":0,""viewing_time"":2201}]",2201,10,instructions,2,8545,WebKit,NA,NA,NA,NA,NA,NA,NA,NA,NA,NA,NA,NA,NA,NA
303,48,NA,NA,10,preload,3,9173,WebKit,TRUE,FALSE,[],[],[],NA,NA,NA,NA,NA,NA,NA,NA,NA
303,48,NA,null,10,html-button-response,4,14182,WebKit,NA,NA,NA,NA,NA,"<p>This is a coba.</p> 
<img src=""yellow_foam_lamp_exemplar.png"" height=""300"" width=""300""></img>",null,coba,yellow_foam_lamp_exemplar.png,NA,NA,NA,NA,NA
303,48,NA,NA,10,preload,5,14183,WebKit,TRUE,FALSE,[],[],[],NA,NA,NA,NA,NA,NA,NA,NA,NA
303,48,NA,3959,10,html-button-response,6,18143,WebKit,NA,NA,NA,NA,NA,"<p>This is a coba.</p> 
<img src=""yellow_foam_lamp_exemplar.png"" height=""300"" width=""300""></img>
<p>One of these is also a coba.</p>",0,NA,NA,blue_crepe_lamp_extension.png,yellow_yarn_snowman_extension.png,red_foam_arch_extension.png,NA,NA
303,48,NA,10431,10,survey-text,7,28585,WebKit,NA,NA,NA,NA,NA,NA,"{""extensionLeftImg_exemplar_commonalities"":""Their shape""}",NA,yellow_foam_lamp_exemplar.png,blue_crepe_lamp_extension.png,NA,NA,NA,NA
303,48,NA,4855,10,survey-text,8,33443,WebKit,NA,NA,NA,NA,NA,NA,"{""extensionCenterImg_exemplar_commonalities"":""Color""}",NA,yellow_foam_lamp_exemplar.png,NA,yellow_yarn_snowman_extension.png,NA,NA,NA
303,48,NA,10113,10,survey-text,9,43564,WebKit,NA,NA,NA,NA,NA,NA,"{""extensionRightImg_exemplar_commonalities"":""squiggley lines pattern""}",NA,yellow_foam_lamp_exemplar.png,NA,NA,red_foam_arch_extension.png,NA,NA
303,48,"[{""page_index"":0,""viewing_time"":1594}]",1594,10,instructions,10,45159,WebKit,NA,NA,NA,NA,NA,NA,NA,NA,NA,NA,NA,NA,NA,NA
303,48,NA,2536,10,survey-text,11,47699,WebKit,NA,NA,NA,NA,NA,NA,"{""Age"":""38""}",NA,NA,NA,NA,NA,NA,NA
303,48,NA,5171,10,survey-multi-choice,12,52872,WebKit,NA,NA,NA,NA,NA,NA,"{""BornUSA"":""Yes"",""ChildhoodUSA"":""Yes"",""CurrentUSA"":""Yes""}",NA,NA,NA,NA,NA,"[0,1,2]",NA
303,48,NA,14586,10,survey-text,13,67469,WebKit,NA,NA,NA,NA,NA,NA,"{""CurrentZipcode"":""481"",""ChildhoodZipcode"":""481""}",NA,NA,NA,NA,NA,NA,NA
303,48,NA,6574,10,survey-text,14,74047,WebKit,NA,NA,NA,NA,NA,NA,"{""FirstLanguage"":""English"",""AllLanguages"":""English""}",NA,NA,NA,NA,NA,NA,NA
303,48,NA,4104,10,html-slider-response,15,78152,WebKit,NA,NA,NA,NA,NA,<p>How would you describe the location <b>where you currently live</b>?</p>,50,NA,NA,NA,NA,NA,NA,50
303,48,NA,1818,10,html-slider-response,16,79971,WebKit,NA,NA,NA,NA,NA,"<p>How would you describe the location <b>where you grew up</b> (if multiple, choose the one that you spent the most time in before 18 years old)?</p>",50,NA,NA,NA,NA,NA,NA,50
303,48,"[{""page_index"":0,""viewing_time"":6594}]",6595,10,instructions,17,86566,WebKit,NA,NA,NA,NA,NA,NA,NA,NA,NA,NA,NA,NA,NA,NA
276,31,"[{""page_index"":0,""viewing_time"":2188}]",2189,11,instructions,0,2191,Macintosh,NA,NA,NA,NA,NA,NA,NA,NA,NA,NA,NA,NA,NA,NA
276,31,NA,NA,11,fullscreen,1,4666,Macintosh,TRUE,NA,NA,NA,NA,NA,NA,NA,NA,NA,NA,NA,NA,NA
276,31,"[{""page_index"":0,""viewing_time"":1375}]",1375,11,instructions,2,6042,Macintosh,NA,NA,NA,NA,NA,NA,NA,NA,NA,NA,NA,NA,NA,NA
276,31,NA,NA,11,preload,3,6468,Macintosh,TRUE,FALSE,[],[],[],NA,NA,NA,NA,NA,NA,NA,NA,NA
276,31,NA,null,11,html-button-response,4,11470,Macintosh,NA,NA,NA,NA,NA,"<p>This is a dax.</p> 
<img src=""blue_yarn_arch_exemplar.png"" height=""300"" width=""300""></img>",null,dax,blue_yarn_arch_exemplar.png,NA,NA,NA,NA,NA
276,31,NA,NA,11,preload,5,11472,Macintosh,TRUE,FALSE,[],[],[],NA,NA,NA,NA,NA,NA,NA,NA,NA
276,31,NA,9197,11,html-button-response,6,20670,Macintosh,NA,NA,NA,NA,NA,"<p>This is a dax.</p> 
<img src=""blue_yarn_arch_exemplar.png"" height=""300"" width=""300""></img>
<p>One of these is also a dax.</p>",1,NA,NA,red_foam_arch_extension.png,yellow_yarn_snowman_extension.png,blue_crepe_lamp_extension.png,NA,NA
276,31,NA,5683,11,survey-text,7,26363,Macintosh,NA,NA,NA,NA,NA,NA,"{""extensionLeftImg_exemplar_commonalities"":""Shape""}",NA,blue_yarn_arch_exemplar.png,red_foam_arch_extension.png,NA,NA,NA,NA
276,31,NA,6551,11,survey-text,8,32917,Macintosh,NA,NA,NA,NA,NA,NA,"{""extensionCenterImg_exemplar_commonalities"":""Made of yarn wrapped on an object""}",NA,blue_yarn_arch_exemplar.png,NA,yellow_yarn_snowman_extension.png,NA,NA,NA
276,31,NA,3183,11,survey-text,9,36103,Macintosh,NA,NA,NA,NA,NA,NA,"{""extensionRightImg_exemplar_commonalities"":""color""}",NA,blue_yarn_arch_exemplar.png,NA,NA,blue_crepe_lamp_extension.png,NA,NA
276,31,"[{""page_index"":0,""viewing_time"":3633}]",3633,11,instructions,10,39737,Macintosh,NA,NA,NA,NA,NA,NA,NA,NA,NA,NA,NA,NA,NA,NA
276,31,NA,1878,11,survey-text,11,41617,Macintosh,NA,NA,NA,NA,NA,NA,"{""Age"":""33""}",NA,NA,NA,NA,NA,NA,NA
276,31,NA,5986,11,survey-multi-choice,12,47606,Macintosh,NA,NA,NA,NA,NA,NA,"{""BornUSA"":""No"",""ChildhoodUSA"":""No"",""CurrentUSA"":""Yes""}",NA,NA,NA,NA,NA,"[0,1,2]",NA
276,31,NA,13757,11,survey-text,13,61369,Macintosh,NA,NA,NA,NA,NA,NA,"{""CurrentZipcode"":""231"",""ChildhoodZipcode"":""J9J""}",NA,NA,NA,NA,NA,NA,NA
276,31,NA,4196,11,survey-text,14,65568,Macintosh,NA,NA,NA,NA,NA,NA,"{""FirstLanguage"":""English"",""AllLanguages"":""English""}",NA,NA,NA,NA,NA,NA,NA
276,31,NA,3946,11,html-slider-response,15,69516,Macintosh,NA,NA,NA,NA,NA,<p>How would you describe the location <b>where you currently live</b>?</p>,50,NA,NA,NA,NA,NA,NA,50
276,31,NA,3954,11,html-slider-response,16,73472,Macintosh,NA,NA,NA,NA,NA,"<p>How would you describe the location <b>where you grew up</b> (if multiple, choose the one that you spent the most time in before 18 years old)?</p>",50,NA,NA,NA,NA,NA,NA,50
276,31,"[{""page_index"":0,""viewing_time"":3547}]",3547,11,instructions,17,77020,Macintosh,NA,NA,NA,NA,NA,NA,NA,NA,NA,NA,NA,NA,NA,NA
230,38,"[{""page_index"":0,""viewing_time"":2353}]",2353,13,instructions,0,2354,WebKit,NA,NA,NA,NA,NA,NA,NA,NA,NA,NA,NA,NA,NA,NA
230,38,NA,NA,13,fullscreen,1,5498,WebKit,TRUE,NA,NA,NA,NA,NA,NA,NA,NA,NA,NA,NA,NA,NA
230,38,"[{""page_index"":0,""viewing_time"":2974}]",2974,13,instructions,2,8473,WebKit,NA,NA,NA,NA,NA,NA,NA,NA,NA,NA,NA,NA,NA,NA
230,38,NA,NA,13,preload,3,9049,WebKit,TRUE,FALSE,[],[],[],NA,NA,NA,NA,NA,NA,NA,NA,NA
230,38,NA,null,13,html-button-response,4,14065,WebKit,NA,NA,NA,NA,NA,"<p>This is a coba.</p> 
<img src=""red_crepe_snowman_exemplar.png"" height=""300"" width=""300""></img>",null,coba,red_crepe_snowman_exemplar.png,NA,NA,NA,NA,NA
230,38,NA,NA,13,preload,5,14067,WebKit,TRUE,FALSE,[],[],[],NA,NA,NA,NA,NA,NA,NA,NA,NA
230,38,NA,3982,13,html-button-response,6,18049,WebKit,NA,NA,NA,NA,NA,"<p>This is a coba.</p> 
<img src=""red_crepe_snowman_exemplar.png"" height=""300"" width=""300""></img>
<p>One of these is also a coba.</p>",1,NA,NA,red_foam_arch_extension.png,blue_crepe_lamp_extension.png,yellow_yarn_snowman_extension.png,NA,NA
230,38,NA,9593,13,survey-text,7,27650,WebKit,NA,NA,NA,NA,NA,NA,"{""extensionLeftImg_exemplar_commonalities"":""the color red""}",NA,red_crepe_snowman_exemplar.png,red_foam_arch_extension.png,NA,NA,NA,NA
230,38,NA,6012,13,survey-text,8,33665,WebKit,NA,NA,NA,NA,NA,NA,"{""extensionCenterImg_exemplar_commonalities"":""texture""}",NA,red_crepe_snowman_exemplar.png,NA,blue_crepe_lamp_extension.png,NA,NA,NA
230,38,NA,3710,13,survey-text,9,37378,WebKit,NA,NA,NA,NA,NA,NA,"{""extensionRightImg_exemplar_commonalities"":""shape""}",NA,red_crepe_snowman_exemplar.png,NA,NA,yellow_yarn_snowman_extension.png,NA,NA
230,38,"[{""page_index"":0,""viewing_time"":1973}]",1974,13,instructions,10,39352,WebKit,NA,NA,NA,NA,NA,NA,NA,NA,NA,NA,NA,NA,NA,NA
230,38,NA,1829,13,survey-text,11,41185,WebKit,NA,NA,NA,NA,NA,NA,"{""Age"":""31""}",NA,NA,NA,NA,NA,NA,NA
230,38,NA,6031,13,survey-multi-choice,12,47218,WebKit,NA,NA,NA,NA,NA,NA,"{""BornUSA"":""Yes"",""ChildhoodUSA"":""Yes"",""CurrentUSA"":""Yes""}",NA,NA,NA,NA,NA,"[0,1,2]",NA
230,38,NA,11974,13,survey-text,13,59202,WebKit,NA,NA,NA,NA,NA,NA,"{""CurrentZipcode"":""351"",""ChildhoodZipcode"":""350""}",NA,NA,NA,NA,NA,NA,NA
230,38,NA,3558,13,survey-text,14,62762,WebKit,NA,NA,NA,NA,NA,NA,"{""FirstLanguage"":""english"",""AllLanguages"":""""}",NA,NA,NA,NA,NA,NA,NA
230,38,NA,5860,13,html-slider-response,15,68625,WebKit,NA,NA,NA,NA,NA,<p>How would you describe the location <b>where you currently live</b>?</p>,23,NA,NA,NA,NA,NA,NA,50
230,38,NA,4135,13,html-slider-response,16,72761,WebKit,NA,NA,NA,NA,NA,"<p>How would you describe the location <b>where you grew up</b> (if multiple, choose the one that you spent the most time in before 18 years old)?</p>",21,NA,NA,NA,NA,NA,NA,50
230,38,"[{""page_index"":0,""viewing_time"":3846}]",3846,13,instructions,17,76609,WebKit,NA,NA,NA,NA,NA,NA,NA,NA,NA,NA,NA,NA,NA,NA
405,1,"[{""page_index"":0,""viewing_time"":2170}]",2170,12,instructions,0,2171,WebKit,NA,NA,NA,NA,NA,NA,NA,NA,NA,NA,NA,NA,NA,NA
405,1,NA,NA,12,fullscreen,1,4556,WebKit,TRUE,NA,NA,NA,NA,NA,NA,NA,NA,NA,NA,NA,NA,NA
405,1,"[{""page_index"":0,""viewing_time"":2052}]",2052,12,instructions,2,6608,WebKit,NA,NA,NA,NA,NA,NA,NA,NA,NA,NA,NA,NA,NA,NA
405,1,NA,NA,12,preload,3,6839,WebKit,TRUE,FALSE,[],[],[],NA,NA,NA,NA,NA,NA,NA,NA,NA
405,1,NA,null,12,html-button-response,4,11853,WebKit,NA,NA,NA,NA,NA,"<p>This is a fep.</p> 
<img src=""red_crepe_snowman_exemplar.png"" height=""300"" width=""300""></img>",null,fep,red_crepe_snowman_exemplar.png,NA,NA,NA,NA,NA
405,1,NA,NA,12,preload,5,11855,WebKit,TRUE,FALSE,[],[],[],NA,NA,NA,NA,NA,NA,NA,NA,NA
405,1,NA,11348,12,html-button-response,6,23204,WebKit,NA,NA,NA,NA,NA,"<p>This is a fep.</p> 
<img src=""red_crepe_snowman_exemplar.png"" height=""300"" width=""300""></img>
<p>One of these is also a fep.</p>",2,NA,NA,red_foam_arch_extension.png,yellow_yarn_snowman_extension.png,blue_crepe_lamp_extension.png,NA,NA
405,1,NA,9762,12,survey-text,7,32978,WebKit,NA,NA,NA,NA,NA,NA,"{""extensionLeftImg_exemplar_commonalities"":""color""}",NA,red_crepe_snowman_exemplar.png,red_foam_arch_extension.png,NA,NA,NA,NA
405,1,NA,5926,12,survey-text,8,38907,WebKit,NA,NA,NA,NA,NA,NA,"{""extensionCenterImg_exemplar_commonalities"":""shape""}",NA,red_crepe_snowman_exemplar.png,NA,yellow_yarn_snowman_extension.png,NA,NA,NA
405,1,NA,8733,12,survey-text,9,47644,WebKit,NA,NA,NA,NA,NA,NA,"{""extensionRightImg_exemplar_commonalities"":""material""}",NA,red_crepe_snowman_exemplar.png,NA,NA,blue_crepe_lamp_extension.png,NA,NA
405,1,"[{""page_index"":0,""viewing_time"":1621}]",1621,12,instructions,10,49265,WebKit,NA,NA,NA,NA,NA,NA,NA,NA,NA,NA,NA,NA,NA,NA
405,1,NA,3139,12,survey-text,11,52408,WebKit,NA,NA,NA,NA,NA,NA,"{""Age"":""37""}",NA,NA,NA,NA,NA,NA,NA
405,1,NA,6052,12,survey-multi-choice,12,58462,WebKit,NA,NA,NA,NA,NA,NA,"{""BornUSA"":""Yes"",""ChildhoodUSA"":""Yes"",""CurrentUSA"":""Yes""}",NA,NA,NA,NA,NA,"[0,1,2]",NA
405,1,NA,12921,12,survey-text,13,71393,WebKit,NA,NA,NA,NA,NA,NA,"{""CurrentZipcode"":""850"",""ChildhoodZipcode"":""970""}",NA,NA,NA,NA,NA,NA,NA
405,1,NA,22375,12,survey-text,14,93772,WebKit,NA,NA,NA,NA,NA,NA,"{""FirstLanguage"":""English"",""AllLanguages"":""English""}",NA,NA,NA,NA,NA,NA,NA
405,1,NA,4990,12,html-slider-response,15,98765,WebKit,NA,NA,NA,NA,NA,<p>How would you describe the location <b>where you currently live</b>?</p>,60,NA,NA,NA,NA,NA,NA,50
405,1,NA,4405,12,html-slider-response,16,103171,WebKit,NA,NA,NA,NA,NA,"<p>How would you describe the location <b>where you grew up</b> (if multiple, choose the one that you spent the most time in before 18 years old)?</p>",49,NA,NA,NA,NA,NA,NA,50
405,1,"[{""page_index"":0,""viewing_time"":7789}]",7789,12,instructions,17,110962,WebKit,NA,NA,NA,NA,NA,NA,NA,NA,NA,NA,NA,NA,NA,NA
150,34,"[{""page_index"":0,""viewing_time"":956}]",956,14,instructions,0,957,WebKit,NA,NA,NA,NA,NA,NA,NA,NA,NA,NA,NA,NA,NA,NA
150,34,NA,NA,14,fullscreen,1,3106,WebKit,TRUE,NA,NA,NA,NA,NA,NA,NA,NA,NA,NA,NA,NA,NA
150,34,"[{""page_index"":0,""viewing_time"":3380}]",3380,14,instructions,2,6487,WebKit,NA,NA,NA,NA,NA,NA,NA,NA,NA,NA,NA,NA,NA,NA
150,34,NA,NA,14,preload,3,6949,WebKit,TRUE,FALSE,[],[],[],NA,NA,NA,NA,NA,NA,NA,NA,NA
150,34,NA,null,14,html-button-response,4,11960,WebKit,NA,NA,NA,NA,NA,"<p>This is a dax.</p> 
<img src=""blue_yarn_arch_exemplar.png"" height=""300"" width=""300""></img>",null,dax,blue_yarn_arch_exemplar.png,NA,NA,NA,NA,NA
150,34,NA,NA,14,preload,5,11961,WebKit,TRUE,FALSE,[],[],[],NA,NA,NA,NA,NA,NA,NA,NA,NA
150,34,NA,1367,14,html-button-response,6,13329,WebKit,NA,NA,NA,NA,NA,"<p>This is a dax.</p> 
<img src=""blue_yarn_arch_exemplar.png"" height=""300"" width=""300""></img>
<p>One of these is also a dax.</p>",2,NA,NA,yellow_yarn_snowman_extension.png,blue_crepe_lamp_extension.png,red_foam_arch_extension.png,NA,NA
150,34,NA,8296,14,survey-text,7,21629,WebKit,NA,NA,NA,NA,NA,NA,"{""extensionLeftImg_exemplar_commonalities"":""both made of yarn""}",NA,blue_yarn_arch_exemplar.png,yellow_yarn_snowman_extension.png,NA,NA,NA,NA
150,34,NA,5711,14,survey-text,8,27341,WebKit,NA,NA,NA,NA,NA,NA,"{""extensionCenterImg_exemplar_commonalities"":""same color""}",NA,blue_yarn_arch_exemplar.png,NA,blue_crepe_lamp_extension.png,NA,NA,NA
150,34,NA,6937,14,survey-text,9,34279,WebKit,NA,NA,NA,NA,NA,NA,"{""extensionRightImg_exemplar_commonalities"":""same shape""}",NA,blue_yarn_arch_exemplar.png,NA,NA,red_foam_arch_extension.png,NA,NA
150,34,"[{""page_index"":0,""viewing_time"":1712}]",1712,14,instructions,10,35992,WebKit,NA,NA,NA,NA,NA,NA,NA,NA,NA,NA,NA,NA,NA,NA
150,34,NA,1885,14,survey-text,11,37879,WebKit,NA,NA,NA,NA,NA,NA,"{""Age"":""19""}",NA,NA,NA,NA,NA,NA,NA
150,34,NA,6320,14,survey-multi-choice,12,44200,WebKit,NA,NA,NA,NA,NA,NA,"{""BornUSA"":""Yes"",""ChildhoodUSA"":""Yes"",""CurrentUSA"":""Yes""}",NA,NA,NA,NA,NA,"[0,1,2]",NA
150,34,NA,11999,14,survey-text,13,56205,WebKit,NA,NA,NA,NA,NA,NA,"{""CurrentZipcode"":""770"",""ChildhoodZipcode"":""770""}",NA,NA,NA,NA,NA,NA,NA
150,34,NA,6478,14,survey-text,14,62684,WebKit,NA,NA,NA,NA,NA,NA,"{""FirstLanguage"":""spanish"",""AllLanguages"":""spanish, english""}",NA,NA,NA,NA,NA,NA,NA
150,34,NA,12383,14,html-slider-response,15,75068,WebKit,NA,NA,NA,NA,NA,<p>How would you describe the location <b>where you currently live</b>?</p>,50,NA,NA,NA,NA,NA,NA,50
150,34,NA,4981,14,html-slider-response,16,80050,WebKit,NA,NA,NA,NA,NA,"<p>How would you describe the location <b>where you grew up</b> (if multiple, choose the one that you spent the most time in before 18 years old)?</p>",50,NA,NA,NA,NA,NA,NA,50
150,34,"[{""page_index"":0,""viewing_time"":1448}]",1448,14,instructions,17,81499,WebKit,NA,NA,NA,NA,NA,NA,NA,NA,NA,NA,NA,NA,NA,NA
354,42,"[{""page_index"":0,""viewing_time"":160175}]",160175,16,instructions,0,160178,WebKit,NA,NA,NA,NA,NA,NA,NA,NA,NA,NA,NA,NA,NA,NA
354,42,NA,NA,16,fullscreen,1,169178,WebKit,TRUE,NA,NA,NA,NA,NA,NA,NA,NA,NA,NA,NA,NA,NA
354,42,"[{""page_index"":0,""viewing_time"":18269}]",18269,16,instructions,2,187448,WebKit,NA,NA,NA,NA,NA,NA,NA,NA,NA,NA,NA,NA,NA,NA
354,42,NA,NA,16,preload,3,187648,WebKit,TRUE,FALSE,[],[],[],NA,NA,NA,NA,NA,NA,NA,NA,NA
354,42,NA,null,16,html-button-response,4,192650,WebKit,NA,NA,NA,NA,NA,"<p>This is a coba.</p> 
<img src=""red_crepe_snowman_exemplar.png"" height=""300"" width=""300""></img>",null,coba,red_crepe_snowman_exemplar.png,NA,NA,NA,NA,NA
354,42,NA,NA,16,preload,5,192651,WebKit,TRUE,FALSE,[],[],[],NA,NA,NA,NA,NA,NA,NA,NA,NA
354,42,NA,17979,16,html-button-response,6,210632,WebKit,NA,NA,NA,NA,NA,"<p>This is a coba.</p> 
<img src=""red_crepe_snowman_exemplar.png"" height=""300"" width=""300""></img>
<p>One of these is also a coba.</p>",1,NA,NA,blue_crepe_lamp_extension.png,yellow_yarn_snowman_extension.png,red_foam_arch_extension.png,NA,NA
354,42,NA,19632,16,survey-text,7,230273,WebKit,NA,NA,NA,NA,NA,NA,"{""extensionLeftImg_exemplar_commonalities"":""Theyre made of paper""}",NA,red_crepe_snowman_exemplar.png,blue_crepe_lamp_extension.png,NA,NA,NA,NA
354,42,NA,10282,16,survey-text,8,240560,WebKit,NA,NA,NA,NA,NA,NA,"{""extensionCenterImg_exemplar_commonalities"":""Theyre the same shape ""}",NA,red_crepe_snowman_exemplar.png,NA,yellow_yarn_snowman_extension.png,NA,NA,NA
354,42,NA,18571,16,survey-text,9,259136,WebKit,NA,NA,NA,NA,NA,NA,"{""extensionRightImg_exemplar_commonalities"":""Theyre both red ""}",NA,red_crepe_snowman_exemplar.png,NA,NA,red_foam_arch_extension.png,NA,NA
354,42,"[{""page_index"":0,""viewing_time"":2981}]",2982,16,instructions,10,262120,WebKit,NA,NA,NA,NA,NA,NA,NA,NA,NA,NA,NA,NA,NA,NA
354,42,NA,62803,16,survey-text,11,324927,WebKit,NA,NA,NA,NA,NA,NA,"{""Age"":""25""}",NA,NA,NA,NA,NA,NA,NA
354,42,NA,106372,16,survey-multi-choice,12,431302,WebKit,NA,NA,NA,NA,NA,NA,"{""BornUSA"":""Yes"",""ChildhoodUSA"":""Yes"",""CurrentUSA"":""Yes""}",NA,NA,NA,NA,NA,"[0,1,2]",NA
354,42,NA,52509,16,survey-text,13,483821,WebKit,NA,NA,NA,NA,NA,NA,"{""CurrentZipcode"":""465"",""ChildhoodZipcode"":""465""}",NA,NA,NA,NA,NA,NA,NA
354,42,NA,43562,16,survey-text,14,527389,WebKit,NA,NA,NA,NA,NA,NA,"{""FirstLanguage"":""English"",""AllLanguages"":""English""}",NA,NA,NA,NA,NA,NA,NA
354,42,NA,52789,16,html-slider-response,15,580181,WebKit,NA,NA,NA,NA,NA,<p>How would you describe the location <b>where you currently live</b>?</p>,59,NA,NA,NA,NA,NA,NA,50
354,42,NA,7445,16,html-slider-response,16,587628,WebKit,NA,NA,NA,NA,NA,"<p>How would you describe the location <b>where you grew up</b> (if multiple, choose the one that you spent the most time in before 18 years old)?</p>",95,NA,NA,NA,NA,NA,NA,50
354,42,"[{""page_index"":0,""viewing_time"":35870}]",35871,16,instructions,17,623500,WebKit,NA,NA,NA,NA,NA,NA,NA,NA,NA,NA,NA,NA,NA,NA
35,43,"[{""page_index"":0,""viewing_time"":4224}]",4225,15,instructions,0,4228,WebKit,NA,NA,NA,NA,NA,NA,NA,NA,NA,NA,NA,NA,NA,NA
35,43,NA,NA,15,fullscreen,1,6596,WebKit,TRUE,NA,NA,NA,NA,NA,NA,NA,NA,NA,NA,NA,NA,NA
35,43,"[{""page_index"":0,""viewing_time"":1778}]",1779,15,instructions,2,8378,WebKit,NA,NA,NA,NA,NA,NA,NA,NA,NA,NA,NA,NA,NA,NA
35,43,NA,NA,15,preload,3,8974,WebKit,TRUE,FALSE,[],[],[],NA,NA,NA,NA,NA,NA,NA,NA,NA
35,43,NA,null,15,html-button-response,4,13992,WebKit,NA,NA,NA,NA,NA,"<p>This is a coba.</p> 
<img src=""yellow_foam_lamp_exemplar.png"" height=""300"" width=""300""></img>",null,coba,yellow_foam_lamp_exemplar.png,NA,NA,NA,NA,NA
35,43,NA,NA,15,preload,5,13997,WebKit,TRUE,FALSE,[],[],[],NA,NA,NA,NA,NA,NA,NA,NA,NA
35,43,NA,3217,15,html-button-response,6,17218,WebKit,NA,NA,NA,NA,NA,"<p>This is a coba.</p> 
<img src=""yellow_foam_lamp_exemplar.png"" height=""300"" width=""300""></img>
<p>One of these is also a coba.</p>",0,NA,NA,red_foam_arch_extension.png,yellow_yarn_snowman_extension.png,blue_crepe_lamp_extension.png,NA,NA
35,43,NA,6900,15,survey-text,7,24131,WebKit,NA,NA,NA,NA,NA,NA,"{""extensionLeftImg_exemplar_commonalities"":""Squiggly lines""}",NA,yellow_foam_lamp_exemplar.png,red_foam_arch_extension.png,NA,NA,NA,NA
35,43,NA,5587,15,survey-text,8,29722,WebKit,NA,NA,NA,NA,NA,NA,"{""extensionCenterImg_exemplar_commonalities"":""The color yellow""}",NA,yellow_foam_lamp_exemplar.png,NA,yellow_yarn_snowman_extension.png,NA,NA,NA
35,43,NA,10386,15,survey-text,9,40114,WebKit,NA,NA,NA,NA,NA,NA,"{""extensionRightImg_exemplar_commonalities"":""The shape of object""}",NA,yellow_foam_lamp_exemplar.png,NA,NA,blue_crepe_lamp_extension.png,NA,NA
35,43,"[{""page_index"":0,""viewing_time"":3277}]",3278,15,instructions,10,43393,WebKit,NA,NA,NA,NA,NA,NA,NA,NA,NA,NA,NA,NA,NA,NA
35,43,NA,1516,15,survey-text,11,44914,WebKit,NA,NA,NA,NA,NA,NA,"{""Age"":""33""}",NA,NA,NA,NA,NA,NA,NA
35,43,NA,4261,15,survey-multi-choice,12,49178,WebKit,NA,NA,NA,NA,NA,NA,"{""BornUSA"":""Yes"",""ChildhoodUSA"":""Yes"",""CurrentUSA"":""Yes""}",NA,NA,NA,NA,NA,"[0,1,2]",NA
35,43,NA,8544,15,survey-text,13,57738,WebKit,NA,NA,NA,NA,NA,NA,"{""CurrentZipcode"":""785"",""ChildhoodZipcode"":""785""}",NA,NA,NA,NA,NA,NA,NA
35,43,NA,4772,15,survey-text,14,62514,WebKit,NA,NA,NA,NA,NA,NA,"{""FirstLanguage"":""English"",""AllLanguages"":""English""}",NA,NA,NA,NA,NA,NA,NA
35,43,NA,3531,15,html-slider-response,15,66049,WebKit,NA,NA,NA,NA,NA,<p>How would you describe the location <b>where you currently live</b>?</p>,71,NA,NA,NA,NA,NA,NA,50
35,43,NA,2558,15,html-slider-response,16,68609,WebKit,NA,NA,NA,NA,NA,"<p>How would you describe the location <b>where you grew up</b> (if multiple, choose the one that you spent the most time in before 18 years old)?</p>",72,NA,NA,NA,NA,NA,NA,50
35,43,"[{""page_index"":0,""viewing_time"":1382}]",1382,15,instructions,17,69993,WebKit,NA,NA,NA,NA,NA,NA,NA,NA,NA,NA,NA,NA,NA,NA
62,25,"[{""page_index"":0,""viewing_time"":2217}]",2218,17,instructions,0,2219,WebKit,NA,NA,NA,NA,NA,NA,NA,NA,NA,NA,NA,NA,NA,NA
62,25,NA,NA,17,fullscreen,1,6209,WebKit,TRUE,NA,NA,NA,NA,NA,NA,NA,NA,NA,NA,NA,NA,NA
62,25,"[{""page_index"":0,""viewing_time"":2602}]",2602,17,instructions,2,8812,WebKit,NA,NA,NA,NA,NA,NA,NA,NA,NA,NA,NA,NA,NA,NA
62,25,NA,NA,17,preload,3,9083,WebKit,TRUE,FALSE,[],[],[],NA,NA,NA,NA,NA,NA,NA,NA,NA
62,25,NA,null,17,html-button-response,4,14100,WebKit,NA,NA,NA,NA,NA,"<p>This is a dax.</p> 
<img src=""yellow_foam_lamp_exemplar.png"" height=""300"" width=""300""></img>",null,dax,yellow_foam_lamp_exemplar.png,NA,NA,NA,NA,NA
62,25,NA,NA,17,preload,5,14103,WebKit,TRUE,FALSE,[],[],[],NA,NA,NA,NA,NA,NA,NA,NA,NA
62,25,NA,6563,17,html-button-response,6,20667,WebKit,NA,NA,NA,NA,NA,"<p>This is a dax.</p> 
<img src=""yellow_foam_lamp_exemplar.png"" height=""300"" width=""300""></img>
<p>One of these is also a dax.</p>",0,NA,NA,red_foam_arch_extension.png,yellow_yarn_snowman_extension.png,blue_crepe_lamp_extension.png,NA,NA
62,25,NA,21968,17,survey-text,7,42643,WebKit,NA,NA,NA,NA,NA,NA,"{""extensionLeftImg_exemplar_commonalities"":""The line pattern""}",NA,yellow_foam_lamp_exemplar.png,red_foam_arch_extension.png,NA,NA,NA,NA
62,25,NA,12469,17,survey-text,8,55116,WebKit,NA,NA,NA,NA,NA,NA,"{""extensionCenterImg_exemplar_commonalities"":""Similar color""}",NA,yellow_foam_lamp_exemplar.png,NA,yellow_yarn_snowman_extension.png,NA,NA,NA
62,25,NA,5988,17,survey-text,9,61106,WebKit,NA,NA,NA,NA,NA,NA,"{""extensionRightImg_exemplar_commonalities"":""similar shape""}",NA,yellow_foam_lamp_exemplar.png,NA,NA,blue_crepe_lamp_extension.png,NA,NA
62,25,"[{""page_index"":0,""viewing_time"":5346}]",5347,17,instructions,10,66454,WebKit,NA,NA,NA,NA,NA,NA,NA,NA,NA,NA,NA,NA,NA,NA
62,25,NA,2669,17,survey-text,11,69126,WebKit,NA,NA,NA,NA,NA,NA,"{""Age"":""34""}",NA,NA,NA,NA,NA,NA,NA
62,25,NA,5716,17,survey-multi-choice,12,74844,WebKit,NA,NA,NA,NA,NA,NA,"{""BornUSA"":""No"",""ChildhoodUSA"":""Yes"",""CurrentUSA"":""Yes""}",NA,NA,NA,NA,NA,"[0,1,2]",NA
62,25,NA,16768,17,survey-text,13,91617,WebKit,NA,NA,NA,NA,NA,NA,"{""CurrentZipcode"":""194"",""ChildhoodZipcode"":""194""}",NA,NA,NA,NA,NA,NA,NA
62,25,NA,22407,17,survey-text,14,114028,WebKit,NA,NA,NA,NA,NA,NA,"{""FirstLanguage"":""Mandarin "",""AllLanguages"":""English, Mandarin""}",NA,NA,NA,NA,NA,NA,NA
62,25,NA,8495,17,html-slider-response,15,122526,WebKit,NA,NA,NA,NA,NA,<p>How would you describe the location <b>where you currently live</b>?</p>,52,NA,NA,NA,NA,NA,NA,50
62,25,NA,4270,17,html-slider-response,16,126798,WebKit,NA,NA,NA,NA,NA,"<p>How would you describe the location <b>where you grew up</b> (if multiple, choose the one that you spent the most time in before 18 years old)?</p>",68,NA,NA,NA,NA,NA,NA,50
62,25,"[{""page_index"":0,""viewing_time"":8450}]",8450,17,instructions,17,135250,WebKit,NA,NA,NA,NA,NA,NA,NA,NA,NA,NA,NA,NA,NA,NA
192,20,"[{""page_index"":0,""viewing_time"":2380}]",2381,18,instructions,0,2384,WebKit,NA,NA,NA,NA,NA,NA,NA,NA,NA,NA,NA,NA,NA,NA
192,20,NA,NA,18,fullscreen,1,6779,WebKit,TRUE,NA,NA,NA,NA,NA,NA,NA,NA,NA,NA,NA,NA,NA
192,20,"[{""page_index"":0,""viewing_time"":1314}]",1316,18,instructions,2,8096,WebKit,NA,NA,NA,NA,NA,NA,NA,NA,NA,NA,NA,NA,NA,NA
192,20,NA,NA,18,preload,3,8874,WebKit,TRUE,FALSE,[],[],[],NA,NA,NA,NA,NA,NA,NA,NA,NA
192,20,NA,null,18,html-button-response,4,13881,WebKit,NA,NA,NA,NA,NA,"<p>This is a dax.</p> 
<img src=""red_crepe_snowman_exemplar.png"" height=""300"" width=""300""></img>",null,dax,red_crepe_snowman_exemplar.png,NA,NA,NA,NA,NA
192,20,NA,NA,18,preload,5,13883,WebKit,TRUE,FALSE,[],[],[],NA,NA,NA,NA,NA,NA,NA,NA,NA
192,20,NA,3215,18,html-button-response,6,17099,WebKit,NA,NA,NA,NA,NA,"<p>This is a dax.</p> 
<img src=""red_crepe_snowman_exemplar.png"" height=""300"" width=""300""></img>
<p>One of these is also a dax.</p>",1,NA,NA,red_foam_arch_extension.png,blue_crepe_lamp_extension.png,yellow_yarn_snowman_extension.png,NA,NA
192,20,NA,12526,18,survey-text,7,29644,WebKit,NA,NA,NA,NA,NA,NA,"{""extensionLeftImg_exemplar_commonalities"":""theyre both red and ugly""}",NA,red_crepe_snowman_exemplar.png,red_foam_arch_extension.png,NA,NA,NA,NA
192,20,NA,8996,18,survey-text,8,38652,WebKit,NA,NA,NA,NA,NA,NA,"{""extensionCenterImg_exemplar_commonalities"":""they are both the same texture""}",NA,red_crepe_snowman_exemplar.png,NA,blue_crepe_lamp_extension.png,NA,NA,NA
192,20,NA,7908,18,survey-text,9,46575,WebKit,NA,NA,NA,NA,NA,NA,"{""extensionRightImg_exemplar_commonalities"":""shape""}",NA,red_crepe_snowman_exemplar.png,NA,NA,yellow_yarn_snowman_extension.png,NA,NA
192,20,"[{""page_index"":0,""viewing_time"":3273}]",3273,18,instructions,10,49851,WebKit,NA,NA,NA,NA,NA,NA,NA,NA,NA,NA,NA,NA,NA,NA
192,20,NA,2813,18,survey-text,11,52675,WebKit,NA,NA,NA,NA,NA,NA,"{""Age"":""25""}",NA,NA,NA,NA,NA,NA,NA
192,20,NA,4953,18,survey-multi-choice,12,57635,WebKit,NA,NA,NA,NA,NA,NA,"{""BornUSA"":""Yes"",""ChildhoodUSA"":""Yes"",""CurrentUSA"":""Yes""}",NA,NA,NA,NA,NA,"[0,1,2]",NA
192,20,NA,13200,18,survey-text,13,70860,WebKit,NA,NA,NA,NA,NA,NA,"{""CurrentZipcode"":""780"",""ChildhoodZipcode"":""780""}",NA,NA,NA,NA,NA,NA,NA
192,20,NA,8722,18,survey-text,14,79596,WebKit,NA,NA,NA,NA,NA,NA,"{""FirstLanguage"":""Spanish"",""AllLanguages"":""English Spanish""}",NA,NA,NA,NA,NA,NA,NA
192,20,NA,4974,18,html-slider-response,15,84577,WebKit,NA,NA,NA,NA,NA,<p>How would you describe the location <b>where you currently live</b>?</p>,50,NA,NA,NA,NA,NA,NA,50
192,20,NA,3506,18,html-slider-response,16,88086,WebKit,NA,NA,NA,NA,NA,"<p>How would you describe the location <b>where you grew up</b> (if multiple, choose the one that you spent the most time in before 18 years old)?</p>",50,NA,NA,NA,NA,NA,NA,50
192,20,"[{""page_index"":0,""viewing_time"":1526}]",1526,18,instructions,17,89615,WebKit,NA,NA,NA,NA,NA,NA,NA,NA,NA,NA,NA,NA,NA,NA
191,41,"[{""page_index"":0,""viewing_time"":1460}]",1460,19,instructions,0,1462,WebKit,NA,NA,NA,NA,NA,NA,NA,NA,NA,NA,NA,NA,NA,NA
191,41,NA,NA,19,fullscreen,1,3515,WebKit,TRUE,NA,NA,NA,NA,NA,NA,NA,NA,NA,NA,NA,NA,NA
191,41,"[{""page_index"":0,""viewing_time"":1617}]",1617,19,instructions,2,5134,WebKit,NA,NA,NA,NA,NA,NA,NA,NA,NA,NA,NA,NA,NA,NA
191,41,NA,NA,19,preload,3,5674,WebKit,TRUE,FALSE,[],[],[],NA,NA,NA,NA,NA,NA,NA,NA,NA
191,41,NA,null,19,html-button-response,4,10677,WebKit,NA,NA,NA,NA,NA,"<p>This is a coba.</p> 
<img src=""red_crepe_snowman_exemplar.png"" height=""300"" width=""300""></img>",null,coba,red_crepe_snowman_exemplar.png,NA,NA,NA,NA,NA
191,41,NA,NA,19,preload,5,10680,WebKit,TRUE,FALSE,[],[],[],NA,NA,NA,NA,NA,NA,NA,NA,NA
191,41,NA,9099,19,html-button-response,6,19782,WebKit,NA,NA,NA,NA,NA,"<p>This is a coba.</p> 
<img src=""red_crepe_snowman_exemplar.png"" height=""300"" width=""300""></img>
<p>One of these is also a coba.</p>",2,NA,NA,blue_crepe_lamp_extension.png,red_foam_arch_extension.png,yellow_yarn_snowman_extension.png,NA,NA
191,41,NA,15563,19,survey-text,7,35350,WebKit,NA,NA,NA,NA,NA,NA,"{""extensionLeftImg_exemplar_commonalities"":""The texture/thing they're made of are smilar""}",NA,red_crepe_snowman_exemplar.png,blue_crepe_lamp_extension.png,NA,NA,NA,NA
191,41,NA,5477,19,survey-text,8,40830,WebKit,NA,NA,NA,NA,NA,NA,"{""extensionCenterImg_exemplar_commonalities"":""Their color""}",NA,red_crepe_snowman_exemplar.png,NA,red_foam_arch_extension.png,NA,NA,NA
191,41,NA,3430,19,survey-text,9,44262,WebKit,NA,NA,NA,NA,NA,NA,"{""extensionRightImg_exemplar_commonalities"":""Their shape""}",NA,red_crepe_snowman_exemplar.png,NA,NA,yellow_yarn_snowman_extension.png,NA,NA
191,41,"[{""page_index"":0,""viewing_time"":2151}]",2151,19,instructions,10,46414,WebKit,NA,NA,NA,NA,NA,NA,NA,NA,NA,NA,NA,NA,NA,NA
191,41,NA,2085,19,survey-text,11,48502,WebKit,NA,NA,NA,NA,NA,NA,"{""Age"":""23""}",NA,NA,NA,NA,NA,NA,NA
191,41,NA,5223,19,survey-multi-choice,12,53726,WebKit,NA,NA,NA,NA,NA,NA,"{""BornUSA"":""Yes"",""ChildhoodUSA"":""Yes"",""CurrentUSA"":""Yes""}",NA,NA,NA,NA,NA,"[0,1,2]",NA
191,41,NA,8744,19,survey-text,13,62478,WebKit,NA,NA,NA,NA,NA,NA,"{""CurrentZipcode"":""126"",""ChildhoodZipcode"":""126""}",NA,NA,NA,NA,NA,NA,NA
191,41,NA,7406,19,survey-text,14,69887,WebKit,NA,NA,NA,NA,NA,NA,"{""FirstLanguage"":""English"",""AllLanguages"":""English, Spanish""}",NA,NA,NA,NA,NA,NA,NA
191,41,NA,4502,19,html-slider-response,15,74390,WebKit,NA,NA,NA,NA,NA,<p>How would you describe the location <b>where you currently live</b>?</p>,66,NA,NA,NA,NA,NA,NA,50
191,41,NA,4391,19,html-slider-response,16,78782,WebKit,NA,NA,NA,NA,NA,"<p>How would you describe the location <b>where you grew up</b> (if multiple, choose the one that you spent the most time in before 18 years old)?</p>",63,NA,NA,NA,NA,NA,NA,50
191,41,"[{""page_index"":0,""viewing_time"":5135}]",5135,19,instructions,17,83918,WebKit,NA,NA,NA,NA,NA,NA,NA,NA,NA,NA,NA,NA,NA,NA
378,28,"[{""page_index"":0,""viewing_time"":3200}]",3201,2,instructions,0,3203,WebKit,NA,NA,NA,NA,NA,NA,NA,NA,NA,NA,NA,NA,NA,NA
378,28,NA,NA,2,fullscreen,1,7345,WebKit,TRUE,NA,NA,NA,NA,NA,NA,NA,NA,NA,NA,NA,NA,NA
378,28,"[{""page_index"":0,""viewing_time"":3612}]",3612,2,instructions,2,10958,WebKit,NA,NA,NA,NA,NA,NA,NA,NA,NA,NA,NA,NA,NA,NA
378,28,NA,NA,2,preload,3,11451,WebKit,TRUE,FALSE,[],[],[],NA,NA,NA,NA,NA,NA,NA,NA,NA
378,28,NA,null,2,html-button-response,4,16464,WebKit,NA,NA,NA,NA,NA,"<p>This is a dax.</p> 
<img src=""yellow_foam_lamp_exemplar.png"" height=""300"" width=""300""></img>",null,dax,yellow_foam_lamp_exemplar.png,NA,NA,NA,NA,NA
378,28,NA,NA,2,preload,5,16466,WebKit,TRUE,FALSE,[],[],[],NA,NA,NA,NA,NA,NA,NA,NA,NA
378,28,NA,8243,2,html-button-response,6,24711,WebKit,NA,NA,NA,NA,NA,"<p>This is a dax.</p> 
<img src=""yellow_foam_lamp_exemplar.png"" height=""300"" width=""300""></img>
<p>One of these is also a dax.</p>",2,NA,NA,yellow_yarn_snowman_extension.png,blue_crepe_lamp_extension.png,red_foam_arch_extension.png,NA,NA
378,28,NA,12286,2,survey-text,7,37004,WebKit,NA,NA,NA,NA,NA,NA,"{""extensionLeftImg_exemplar_commonalities"":""They are both yellow.""}",NA,yellow_foam_lamp_exemplar.png,yellow_yarn_snowman_extension.png,NA,NA,NA,NA
378,28,NA,9264,2,survey-text,8,46271,WebKit,NA,NA,NA,NA,NA,NA,"{""extensionCenterImg_exemplar_commonalities"":""They are the same shape.""}",NA,yellow_foam_lamp_exemplar.png,NA,blue_crepe_lamp_extension.png,NA,NA,NA
378,28,NA,11776,2,survey-text,9,58051,WebKit,NA,NA,NA,NA,NA,NA,"{""extensionRightImg_exemplar_commonalities"":""They have the same wavy line pattern on them.""}",NA,yellow_foam_lamp_exemplar.png,NA,NA,red_foam_arch_extension.png,NA,NA
378,28,"[{""page_index"":0,""viewing_time"":3300}]",3301,2,instructions,10,61354,WebKit,NA,NA,NA,NA,NA,NA,NA,NA,NA,NA,NA,NA,NA,NA
378,28,NA,3824,2,survey-text,11,65183,WebKit,NA,NA,NA,NA,NA,NA,"{""Age"":""42""}",NA,NA,NA,NA,NA,NA,NA
378,28,NA,6731,2,survey-multi-choice,12,71918,WebKit,NA,NA,NA,NA,NA,NA,"{""BornUSA"":""Yes"",""ChildhoodUSA"":""Yes"",""CurrentUSA"":""Yes""}",NA,NA,NA,NA,NA,"[0,1,2]",NA
378,28,NA,12670,2,survey-text,13,84597,WebKit,NA,NA,NA,NA,NA,NA,"{""CurrentZipcode"":""021"",""ChildhoodZipcode"":""066""}",NA,NA,NA,NA,NA,NA,NA
378,28,NA,1948,2,survey-text,14,86550,WebKit,NA,NA,NA,NA,NA,NA,"{""FirstLanguage"":"""",""AllLanguages"":""""}",NA,NA,NA,NA,NA,NA,NA
378,28,NA,14512,2,html-slider-response,15,101066,WebKit,NA,NA,NA,NA,NA,<p>How would you describe the location <b>where you currently live</b>?</p>,85,NA,NA,NA,NA,NA,NA,50
378,28,NA,5549,2,html-slider-response,16,106619,WebKit,NA,NA,NA,NA,NA,"<p>How would you describe the location <b>where you grew up</b> (if multiple, choose the one that you spent the most time in before 18 years old)?</p>",50,NA,NA,NA,NA,NA,NA,50
378,28,"[{""page_index"":0,""viewing_time"":2706}]",2706,2,instructions,17,109328,WebKit,NA,NA,NA,NA,NA,NA,NA,NA,NA,NA,NA,NA,NA,NA
311,53,"[{""page_index"":0,""viewing_time"":1802}]",1802,20,instructions,0,1803,WebKit,NA,NA,NA,NA,NA,NA,NA,NA,NA,NA,NA,NA,NA,NA
311,53,NA,NA,20,fullscreen,1,4089,WebKit,TRUE,NA,NA,NA,NA,NA,NA,NA,NA,NA,NA,NA,NA,NA
311,53,"[{""page_index"":0,""viewing_time"":1238}]",1239,20,instructions,2,5328,WebKit,NA,NA,NA,NA,NA,NA,NA,NA,NA,NA,NA,NA,NA,NA
311,53,NA,NA,20,preload,3,5418,WebKit,TRUE,FALSE,[],[],[],NA,NA,NA,NA,NA,NA,NA,NA,NA
311,53,NA,null,20,html-button-response,4,10422,WebKit,NA,NA,NA,NA,NA,"<p>This is a coba.</p> 
<img src=""blue_yarn_arch_exemplar.png"" height=""300"" width=""300""></img>",null,coba,blue_yarn_arch_exemplar.png,NA,NA,NA,NA,NA
311,53,NA,NA,20,preload,5,10424,WebKit,TRUE,FALSE,[],[],[],NA,NA,NA,NA,NA,NA,NA,NA,NA
311,53,NA,4116,20,html-button-response,6,14543,WebKit,NA,NA,NA,NA,NA,"<p>This is a coba.</p> 
<img src=""blue_yarn_arch_exemplar.png"" height=""300"" width=""300""></img>
<p>One of these is also a coba.</p>",2,NA,NA,blue_crepe_lamp_extension.png,red_foam_arch_extension.png,yellow_yarn_snowman_extension.png,NA,NA
311,53,NA,7963,20,survey-text,7,22513,WebKit,NA,NA,NA,NA,NA,NA,"{""extensionLeftImg_exemplar_commonalities"":""they are blue""}",NA,blue_yarn_arch_exemplar.png,blue_crepe_lamp_extension.png,NA,NA,NA,NA
311,53,NA,7810,20,survey-text,8,30325,WebKit,NA,NA,NA,NA,NA,NA,"{""extensionCenterImg_exemplar_commonalities"":""the have the same shape""}",NA,blue_yarn_arch_exemplar.png,NA,red_foam_arch_extension.png,NA,NA,NA
311,53,NA,7253,20,survey-text,9,37579,WebKit,NA,NA,NA,NA,NA,NA,"{""extensionRightImg_exemplar_commonalities"":""they are made of yarn""}",NA,blue_yarn_arch_exemplar.png,NA,NA,yellow_yarn_snowman_extension.png,NA,NA
311,53,"[{""page_index"":0,""viewing_time"":1012}]",1012,20,instructions,10,38592,WebKit,NA,NA,NA,NA,NA,NA,NA,NA,NA,NA,NA,NA,NA,NA
311,53,NA,2310,20,survey-text,11,40904,WebKit,NA,NA,NA,NA,NA,NA,"{""Age"":""22""}",NA,NA,NA,NA,NA,NA,NA
311,53,NA,10049,20,survey-multi-choice,12,50955,WebKit,NA,NA,NA,NA,NA,NA,"{""BornUSA"":""Yes"",""ChildhoodUSA"":""Yes"",""CurrentUSA"":""Yes""}",NA,NA,NA,NA,NA,"[0,1,2]",NA
311,53,NA,16059,20,survey-text,13,67023,WebKit,NA,NA,NA,NA,NA,NA,"{""CurrentZipcode"":""604"",""ChildhoodZipcode"":""604""}",NA,NA,NA,NA,NA,NA,NA
311,53,NA,9876,20,survey-text,14,76901,WebKit,NA,NA,NA,NA,NA,NA,"{""FirstLanguage"":""english"",""AllLanguages"":""English""}",NA,NA,NA,NA,NA,NA,NA
311,53,NA,4930,20,html-slider-response,15,81833,WebKit,NA,NA,NA,NA,NA,<p>How would you describe the location <b>where you currently live</b>?</p>,69,NA,NA,NA,NA,NA,NA,50
311,53,NA,5313,20,html-slider-response,16,87147,WebKit,NA,NA,NA,NA,NA,"<p>How would you describe the location <b>where you grew up</b> (if multiple, choose the one that you spent the most time in before 18 years old)?</p>",72,NA,NA,NA,NA,NA,NA,50
311,53,"[{""page_index"":0,""viewing_time"":8902}]",8902,20,instructions,17,96049,WebKit,NA,NA,NA,NA,NA,NA,NA,NA,NA,NA,NA,NA,NA,NA
184,23,"[{""page_index"":0,""viewing_time"":1091}]",1091,21,instructions,0,1092,WebKit,NA,NA,NA,NA,NA,NA,NA,NA,NA,NA,NA,NA,NA,NA
184,23,NA,NA,21,fullscreen,1,3149,WebKit,TRUE,NA,NA,NA,NA,NA,NA,NA,NA,NA,NA,NA,NA,NA
184,23,"[{""page_index"":0,""viewing_time"":765}]",765,21,instructions,2,3915,WebKit,NA,NA,NA,NA,NA,NA,NA,NA,NA,NA,NA,NA,NA,NA
184,23,NA,NA,21,preload,3,4995,WebKit,TRUE,FALSE,[],[],[],NA,NA,NA,NA,NA,NA,NA,NA,NA
184,23,NA,null,21,html-button-response,4,9997,WebKit,NA,NA,NA,NA,NA,"<p>This is a dax.</p> 
<img src=""red_crepe_snowman_exemplar.png"" height=""300"" width=""300""></img>",null,dax,red_crepe_snowman_exemplar.png,NA,NA,NA,NA,NA
184,23,NA,NA,21,preload,5,9998,WebKit,TRUE,FALSE,[],[],[],NA,NA,NA,NA,NA,NA,NA,NA,NA
184,23,NA,5590,21,html-button-response,6,15589,WebKit,NA,NA,NA,NA,NA,"<p>This is a dax.</p> 
<img src=""red_crepe_snowman_exemplar.png"" height=""300"" width=""300""></img>
<p>One of these is also a dax.</p>",2,NA,NA,blue_crepe_lamp_extension.png,red_foam_arch_extension.png,yellow_yarn_snowman_extension.png,NA,NA
184,23,NA,12887,21,survey-text,7,28485,WebKit,NA,NA,NA,NA,NA,NA,"{""extensionLeftImg_exemplar_commonalities"":""made of similar type of material""}",NA,red_crepe_snowman_exemplar.png,blue_crepe_lamp_extension.png,NA,NA,NA,NA
184,23,NA,5782,21,survey-text,8,34269,WebKit,NA,NA,NA,NA,NA,NA,"{""extensionCenterImg_exemplar_commonalities"":""same color""}",NA,red_crepe_snowman_exemplar.png,NA,red_foam_arch_extension.png,NA,NA,NA
184,23,NA,2849,21,survey-text,9,37120,WebKit,NA,NA,NA,NA,NA,NA,"{""extensionRightImg_exemplar_commonalities"":""same shape""}",NA,red_crepe_snowman_exemplar.png,NA,NA,yellow_yarn_snowman_extension.png,NA,NA
184,23,"[{""page_index"":0,""viewing_time"":827}]",827,21,instructions,10,37948,WebKit,NA,NA,NA,NA,NA,NA,NA,NA,NA,NA,NA,NA,NA,NA
184,23,NA,2366,21,survey-text,11,40316,WebKit,NA,NA,NA,NA,NA,NA,"{""Age"":""26""}",NA,NA,NA,NA,NA,NA,NA
184,23,NA,3324,21,survey-multi-choice,12,43642,WebKit,NA,NA,NA,NA,NA,NA,"{""BornUSA"":""Yes"",""ChildhoodUSA"":""Yes"",""CurrentUSA"":""Yes""}",NA,NA,NA,NA,NA,"[0,1,2]",NA
184,23,NA,7078,21,survey-text,13,50726,WebKit,NA,NA,NA,NA,NA,NA,"{""CurrentZipcode"":""850"",""ChildhoodZipcode"":""945""}",NA,NA,NA,NA,NA,NA,NA
184,23,NA,10757,21,survey-text,14,61485,WebKit,NA,NA,NA,NA,NA,NA,"{""FirstLanguage"":""English"",""AllLanguages"":""English, Mandarin""}",NA,NA,NA,NA,NA,NA,NA
184,23,NA,2696,21,html-slider-response,15,64183,WebKit,NA,NA,NA,NA,NA,<p>How would you describe the location <b>where you currently live</b>?</p>,100,NA,NA,NA,NA,NA,NA,50
184,23,NA,2202,21,html-slider-response,16,66386,WebKit,NA,NA,NA,NA,NA,"<p>How would you describe the location <b>where you grew up</b> (if multiple, choose the one that you spent the most time in before 18 years old)?</p>",50,NA,NA,NA,NA,NA,NA,50
184,23,"[{""page_index"":0,""viewing_time"":1037}]",1037,21,instructions,17,67424,WebKit,NA,NA,NA,NA,NA,NA,NA,NA,NA,NA,NA,NA,NA,NA
223,6,"[{""page_index"":0,""viewing_time"":1743}]",1743,22,instructions,0,1745,Macintosh,NA,NA,NA,NA,NA,NA,NA,NA,NA,NA,NA,NA,NA,NA
223,6,NA,NA,22,fullscreen,1,5887,Macintosh,TRUE,NA,NA,NA,NA,NA,NA,NA,NA,NA,NA,NA,NA,NA
223,6,"[{""page_index"":0,""viewing_time"":1566}]",1566,22,instructions,2,7453,Macintosh,NA,NA,NA,NA,NA,NA,NA,NA,NA,NA,NA,NA,NA,NA
223,6,NA,NA,22,preload,3,7680,Macintosh,TRUE,FALSE,[],[],[],NA,NA,NA,NA,NA,NA,NA,NA,NA
223,6,NA,null,22,html-button-response,4,12682,Macintosh,NA,NA,NA,NA,NA,"<p>This is a fep.</p> 
<img src=""red_crepe_snowman_exemplar.png"" height=""300"" width=""300""></img>",null,fep,red_crepe_snowman_exemplar.png,NA,NA,NA,NA,NA
223,6,NA,NA,22,preload,5,12684,Macintosh,TRUE,FALSE,[],[],[],NA,NA,NA,NA,NA,NA,NA,NA,NA
223,6,NA,7808,22,html-button-response,6,20494,Macintosh,NA,NA,NA,NA,NA,"<p>This is a fep.</p> 
<img src=""red_crepe_snowman_exemplar.png"" height=""300"" width=""300""></img>
<p>One of these is also a fep.</p>",1,NA,NA,blue_crepe_lamp_extension.png,yellow_yarn_snowman_extension.png,red_foam_arch_extension.png,NA,NA
223,6,NA,7438,22,survey-text,7,27935,Macintosh,NA,NA,NA,NA,NA,NA,"{""extensionLeftImg_exemplar_commonalities"":""material""}",NA,red_crepe_snowman_exemplar.png,blue_crepe_lamp_extension.png,NA,NA,NA,NA
223,6,NA,3067,22,survey-text,8,31005,Macintosh,NA,NA,NA,NA,NA,NA,"{""extensionCenterImg_exemplar_commonalities"":""shape""}",NA,red_crepe_snowman_exemplar.png,NA,yellow_yarn_snowman_extension.png,NA,NA,NA
223,6,NA,2454,22,survey-text,9,33461,Macintosh,NA,NA,NA,NA,NA,NA,"{""extensionRightImg_exemplar_commonalities"":""color""}",NA,red_crepe_snowman_exemplar.png,NA,NA,red_foam_arch_extension.png,NA,NA
223,6,"[{""page_index"":0,""viewing_time"":1923}]",1923,22,instructions,10,35384,Macintosh,NA,NA,NA,NA,NA,NA,NA,NA,NA,NA,NA,NA,NA,NA
223,6,NA,2372,22,survey-text,11,37761,Macintosh,NA,NA,NA,NA,NA,NA,"{""Age"":""26""}",NA,NA,NA,NA,NA,NA,NA
223,6,NA,6293,22,survey-multi-choice,12,44056,Macintosh,NA,NA,NA,NA,NA,NA,"{""BornUSA"":""Yes"",""ChildhoodUSA"":""Yes"",""CurrentUSA"":""Yes""}",NA,NA,NA,NA,NA,"[0,1,2]",NA
223,6,NA,18226,22,survey-text,13,62294,Macintosh,NA,NA,NA,NA,NA,NA,"{""CurrentZipcode"":""276"",""ChildhoodZipcode"":""275""}",NA,NA,NA,NA,NA,NA,NA
223,6,NA,7289,22,survey-text,14,69591,Macintosh,NA,NA,NA,NA,NA,NA,"{""FirstLanguage"":""English"",""AllLanguages"":""English, Spanish""}",NA,NA,NA,NA,NA,NA,NA
223,6,NA,3926,22,html-slider-response,15,73522,Macintosh,NA,NA,NA,NA,NA,<p>How would you describe the location <b>where you currently live</b>?</p>,50,NA,NA,NA,NA,NA,NA,50
223,6,NA,2489,22,html-slider-response,16,76012,Macintosh,NA,NA,NA,NA,NA,"<p>How would you describe the location <b>where you grew up</b> (if multiple, choose the one that you spent the most time in before 18 years old)?</p>",50,NA,NA,NA,NA,NA,NA,50
223,6,"[{""page_index"":0,""viewing_time"":1429}]",1429,22,instructions,17,77442,Macintosh,NA,NA,NA,NA,NA,NA,NA,NA,NA,NA,NA,NA,NA,NA
159,2,"[{""page_index"":0,""viewing_time"":1940}]",1941,24,instructions,0,1942,Macintosh,NA,NA,NA,NA,NA,NA,NA,NA,NA,NA,NA,NA,NA,NA
159,2,NA,NA,24,fullscreen,1,5150,Macintosh,TRUE,NA,NA,NA,NA,NA,NA,NA,NA,NA,NA,NA,NA,NA
159,2,"[{""page_index"":0,""viewing_time"":1291}]",1291,24,instructions,2,6443,Macintosh,NA,NA,NA,NA,NA,NA,NA,NA,NA,NA,NA,NA,NA,NA
159,2,NA,NA,24,preload,3,6632,Macintosh,TRUE,FALSE,[],[],[],NA,NA,NA,NA,NA,NA,NA,NA,NA
159,2,NA,null,24,html-button-response,4,11633,Macintosh,NA,NA,NA,NA,NA,"<p>This is a fep.</p> 
<img src=""red_crepe_snowman_exemplar.png"" height=""300"" width=""300""></img>",null,fep,red_crepe_snowman_exemplar.png,NA,NA,NA,NA,NA
159,2,NA,NA,24,preload,5,11636,Macintosh,TRUE,FALSE,[],[],[],NA,NA,NA,NA,NA,NA,NA,NA,NA
159,2,NA,6739,24,html-button-response,6,18376,Macintosh,NA,NA,NA,NA,NA,"<p>This is a fep.</p> 
<img src=""red_crepe_snowman_exemplar.png"" height=""300"" width=""300""></img>
<p>One of these is also a fep.</p>",1,NA,NA,red_foam_arch_extension.png,blue_crepe_lamp_extension.png,yellow_yarn_snowman_extension.png,NA,NA
159,2,NA,8128,24,survey-text,7,26512,Macintosh,NA,NA,NA,NA,NA,NA,"{""extensionLeftImg_exemplar_commonalities"":""Color""}",NA,red_crepe_snowman_exemplar.png,red_foam_arch_extension.png,NA,NA,NA,NA
159,2,NA,9995,24,survey-text,8,36511,Macintosh,NA,NA,NA,NA,NA,NA,"{""extensionCenterImg_exemplar_commonalities"":""Material""}",NA,red_crepe_snowman_exemplar.png,NA,blue_crepe_lamp_extension.png,NA,NA,NA
159,2,NA,3067,24,survey-text,9,39582,Macintosh,NA,NA,NA,NA,NA,NA,"{""extensionRightImg_exemplar_commonalities"":""Shape""}",NA,red_crepe_snowman_exemplar.png,NA,NA,yellow_yarn_snowman_extension.png,NA,NA
159,2,"[{""page_index"":0,""viewing_time"":1455}]",1455,24,instructions,10,41039,Macintosh,NA,NA,NA,NA,NA,NA,NA,NA,NA,NA,NA,NA,NA,NA
159,2,NA,2358,24,survey-text,11,43401,Macintosh,NA,NA,NA,NA,NA,NA,"{""Age"":""28""}",NA,NA,NA,NA,NA,NA,NA
159,2,NA,7500,24,survey-multi-choice,12,50904,Macintosh,NA,NA,NA,NA,NA,NA,"{""BornUSA"":""Yes"",""ChildhoodUSA"":""Yes"",""CurrentUSA"":""Yes""}",NA,NA,NA,NA,NA,"[0,1,2]",NA
159,2,NA,25450,24,survey-text,13,76364,Macintosh,NA,NA,NA,NA,NA,NA,"{""CurrentZipcode"":""335"",""ChildhoodZipcode"":""171""}",NA,NA,NA,NA,NA,NA,NA
159,2,NA,9927,24,survey-text,14,86294,Macintosh,NA,NA,NA,NA,NA,NA,"{""FirstLanguage"":""English"",""AllLanguages"":""English and Portuguese""}",NA,NA,NA,NA,NA,NA,NA
159,2,NA,4521,24,html-slider-response,15,90822,Macintosh,NA,NA,NA,NA,NA,<p>How would you describe the location <b>where you currently live</b>?</p>,50,NA,NA,NA,NA,NA,NA,50
159,2,NA,3123,24,html-slider-response,16,93947,Macintosh,NA,NA,NA,NA,NA,"<p>How would you describe the location <b>where you grew up</b> (if multiple, choose the one that you spent the most time in before 18 years old)?</p>",50,NA,NA,NA,NA,NA,NA,50
159,2,"[{""page_index"":0,""viewing_time"":2432}]",2432,24,instructions,17,96381,Macintosh,NA,NA,NA,NA,NA,NA,NA,NA,NA,NA,NA,NA,NA,NA
228,19,"[{""page_index"":0,""viewing_time"":3463}]",3463,23,instructions,0,3465,Macintosh,NA,NA,NA,NA,NA,NA,NA,NA,NA,NA,NA,NA,NA,NA
228,19,NA,NA,23,fullscreen,1,6822,Macintosh,TRUE,NA,NA,NA,NA,NA,NA,NA,NA,NA,NA,NA,NA,NA
228,19,"[{""page_index"":0,""viewing_time"":2895}]",2895,23,instructions,2,9724,Macintosh,NA,NA,NA,NA,NA,NA,NA,NA,NA,NA,NA,NA,NA,NA
228,19,NA,NA,23,preload,3,9913,Macintosh,TRUE,FALSE,[],[],[],NA,NA,NA,NA,NA,NA,NA,NA,NA
228,19,NA,null,23,html-button-response,4,14917,Macintosh,NA,NA,NA,NA,NA,"<p>This is a dax.</p> 
<img src=""red_crepe_snowman_exemplar.png"" height=""300"" width=""300""></img>",null,dax,red_crepe_snowman_exemplar.png,NA,NA,NA,NA,NA
228,19,NA,NA,23,preload,5,14919,Macintosh,TRUE,FALSE,[],[],[],NA,NA,NA,NA,NA,NA,NA,NA,NA
228,19,NA,3439,23,html-button-response,6,18359,Macintosh,NA,NA,NA,NA,NA,"<p>This is a dax.</p> 
<img src=""red_crepe_snowman_exemplar.png"" height=""300"" width=""300""></img>
<p>One of these is also a dax.</p>",2,NA,NA,red_foam_arch_extension.png,yellow_yarn_snowman_extension.png,blue_crepe_lamp_extension.png,NA,NA
228,19,NA,7557,23,survey-text,7,25930,Macintosh,NA,NA,NA,NA,NA,NA,"{""extensionLeftImg_exemplar_commonalities"":""red""}",NA,red_crepe_snowman_exemplar.png,red_foam_arch_extension.png,NA,NA,NA,NA
228,19,NA,7987,23,survey-text,8,33920,Macintosh,NA,NA,NA,NA,NA,NA,"{""extensionCenterImg_exemplar_commonalities"":""shape""}",NA,red_crepe_snowman_exemplar.png,NA,yellow_yarn_snowman_extension.png,NA,NA,NA
228,19,NA,5264,23,survey-text,9,39188,Macintosh,NA,NA,NA,NA,NA,NA,"{""extensionRightImg_exemplar_commonalities"":""material""}",NA,red_crepe_snowman_exemplar.png,NA,NA,blue_crepe_lamp_extension.png,NA,NA
228,19,"[{""page_index"":0,""viewing_time"":3095}]",3095,23,instructions,10,42285,Macintosh,NA,NA,NA,NA,NA,NA,NA,NA,NA,NA,NA,NA,NA,NA
228,19,NA,4068,23,survey-text,11,46356,Macintosh,NA,NA,NA,NA,NA,NA,"{""Age"":""55""}",NA,NA,NA,NA,NA,NA,NA
228,19,NA,6490,23,survey-multi-choice,12,52849,Macintosh,NA,NA,NA,NA,NA,NA,"{""BornUSA"":""Yes"",""ChildhoodUSA"":""Yes"",""CurrentUSA"":""Yes""}",NA,NA,NA,NA,NA,"[0,1,2]",NA
228,19,NA,11977,23,survey-text,13,64836,Macintosh,NA,NA,NA,NA,NA,NA,"{""CurrentZipcode"":""280"",""ChildhoodZipcode"":""280""}",NA,NA,NA,NA,NA,NA,NA
228,19,NA,7333,23,survey-text,14,72173,Macintosh,NA,NA,NA,NA,NA,NA,"{""FirstLanguage"":""English"",""AllLanguages"":""English""}",NA,NA,NA,NA,NA,NA,NA
228,19,NA,7813,23,html-slider-response,15,79988,Macintosh,NA,NA,NA,NA,NA,<p>How would you describe the location <b>where you currently live</b>?</p>,48,NA,NA,NA,NA,NA,NA,50
228,19,NA,4568,23,html-slider-response,16,84560,Macintosh,NA,NA,NA,NA,NA,"<p>How would you describe the location <b>where you grew up</b> (if multiple, choose the one that you spent the most time in before 18 years old)?</p>",51,NA,NA,NA,NA,NA,NA,50
228,19,"[{""page_index"":0,""viewing_time"":3535}]",3535,23,instructions,17,88096,Macintosh,NA,NA,NA,NA,NA,NA,NA,NA,NA,NA,NA,NA,NA,NA
155,22,"[{""page_index"":0,""viewing_time"":2014}]",2014,25,instructions,0,2016,WebKit,NA,NA,NA,NA,NA,NA,NA,NA,NA,NA,NA,NA,NA,NA
155,22,NA,NA,25,fullscreen,1,4135,WebKit,TRUE,NA,NA,NA,NA,NA,NA,NA,NA,NA,NA,NA,NA,NA
155,22,"[{""page_index"":0,""viewing_time"":3717}]",3717,25,instructions,2,7853,WebKit,NA,NA,NA,NA,NA,NA,NA,NA,NA,NA,NA,NA,NA,NA
155,22,NA,NA,25,preload,3,8274,WebKit,TRUE,FALSE,[],[],[],NA,NA,NA,NA,NA,NA,NA,NA,NA
155,22,NA,null,25,html-button-response,4,13282,WebKit,NA,NA,NA,NA,NA,"<p>This is a dax.</p> 
<img src=""red_crepe_snowman_exemplar.png"" height=""300"" width=""300""></img>",null,dax,red_crepe_snowman_exemplar.png,NA,NA,NA,NA,NA
155,22,NA,NA,25,preload,5,13283,WebKit,TRUE,FALSE,[],[],[],NA,NA,NA,NA,NA,NA,NA,NA,NA
155,22,NA,4328,25,html-button-response,6,17612,WebKit,NA,NA,NA,NA,NA,"<p>This is a dax.</p> 
<img src=""red_crepe_snowman_exemplar.png"" height=""300"" width=""300""></img>
<p>One of these is also a dax.</p>",1,NA,NA,yellow_yarn_snowman_extension.png,blue_crepe_lamp_extension.png,red_foam_arch_extension.png,NA,NA
155,22,NA,33252,25,survey-text,7,50870,WebKit,NA,NA,NA,NA,NA,NA,"{""extensionLeftImg_exemplar_commonalities"":""They are one color, looks kinda clumped together""}",NA,red_crepe_snowman_exemplar.png,yellow_yarn_snowman_extension.png,NA,NA,NA,NA
155,22,NA,14459,25,survey-text,8,65333,WebKit,NA,NA,NA,NA,NA,NA,"{""extensionCenterImg_exemplar_commonalities"":""One color, looks like they're made out of the same material""}",NA,red_crepe_snowman_exemplar.png,NA,blue_crepe_lamp_extension.png,NA,NA,NA
155,22,NA,8512,25,survey-text,9,73848,WebKit,NA,NA,NA,NA,NA,NA,"{""extensionRightImg_exemplar_commonalities"":""Both are generally red""}",NA,red_crepe_snowman_exemplar.png,NA,NA,red_foam_arch_extension.png,NA,NA
155,22,"[{""page_index"":0,""viewing_time"":1675}]",1676,25,instructions,10,75524,WebKit,NA,NA,NA,NA,NA,NA,NA,NA,NA,NA,NA,NA,NA,NA
155,22,NA,1928,25,survey-text,11,77455,WebKit,NA,NA,NA,NA,NA,NA,"{""Age"":""28""}",NA,NA,NA,NA,NA,NA,NA
155,22,NA,6391,25,survey-multi-choice,12,83848,WebKit,NA,NA,NA,NA,NA,NA,"{""BornUSA"":""Yes"",""ChildhoodUSA"":""Yes"",""CurrentUSA"":""Yes""}",NA,NA,NA,NA,NA,"[0,1,2]",NA
155,22,NA,18977,25,survey-text,13,102834,WebKit,NA,NA,NA,NA,NA,NA,"{""CurrentZipcode"":""891"",""ChildhoodZipcode"":""346""}",NA,NA,NA,NA,NA,NA,NA
155,22,NA,4413,25,survey-text,14,107251,WebKit,NA,NA,NA,NA,NA,NA,"{""FirstLanguage"":""English"",""AllLanguages"":""English""}",NA,NA,NA,NA,NA,NA,NA
155,22,NA,4895,25,html-slider-response,15,112147,WebKit,NA,NA,NA,NA,NA,<p>How would you describe the location <b>where you currently live</b>?</p>,43,NA,NA,NA,NA,NA,NA,50
155,22,NA,3938,25,html-slider-response,16,116086,WebKit,NA,NA,NA,NA,NA,"<p>How would you describe the location <b>where you grew up</b> (if multiple, choose the one that you spent the most time in before 18 years old)?</p>",25,NA,NA,NA,NA,NA,NA,50
155,22,"[{""page_index"":0,""viewing_time"":10577}]",10577,25,instructions,17,126665,WebKit,NA,NA,NA,NA,NA,NA,NA,NA,NA,NA,NA,NA,NA,NA
205,51,"[{""page_index"":0,""viewing_time"":1522}]",1523,26,instructions,0,1523,WebKit,NA,NA,NA,NA,NA,NA,NA,NA,NA,NA,NA,NA,NA,NA
205,51,NA,NA,26,fullscreen,1,3555,WebKit,TRUE,NA,NA,NA,NA,NA,NA,NA,NA,NA,NA,NA,NA,NA
205,51,"[{""page_index"":0,""viewing_time"":1311}]",1311,26,instructions,2,4867,WebKit,NA,NA,NA,NA,NA,NA,NA,NA,NA,NA,NA,NA,NA,NA
205,51,NA,NA,26,preload,3,4962,WebKit,TRUE,FALSE,[],[],[],NA,NA,NA,NA,NA,NA,NA,NA,NA
205,51,NA,null,26,html-button-response,4,9969,WebKit,NA,NA,NA,NA,NA,"<p>This is a coba.</p> 
<img src=""blue_yarn_arch_exemplar.png"" height=""300"" width=""300""></img>",null,coba,blue_yarn_arch_exemplar.png,NA,NA,NA,NA,NA
205,51,NA,NA,26,preload,5,9972,WebKit,TRUE,FALSE,[],[],[],NA,NA,NA,NA,NA,NA,NA,NA,NA
205,51,NA,6414,26,html-button-response,6,16388,WebKit,NA,NA,NA,NA,NA,"<p>This is a coba.</p> 
<img src=""blue_yarn_arch_exemplar.png"" height=""300"" width=""300""></img>
<p>One of these is also a coba.</p>",0,NA,NA,yellow_yarn_snowman_extension.png,red_foam_arch_extension.png,blue_crepe_lamp_extension.png,NA,NA
205,51,NA,6059,26,survey-text,7,22452,WebKit,NA,NA,NA,NA,NA,NA,"{""extensionLeftImg_exemplar_commonalities"":""Made of yarn""}",NA,blue_yarn_arch_exemplar.png,yellow_yarn_snowman_extension.png,NA,NA,NA,NA
205,51,NA,4765,26,survey-text,8,27219,WebKit,NA,NA,NA,NA,NA,NA,"{""extensionCenterImg_exemplar_commonalities"":""Bridge shaped""}",NA,blue_yarn_arch_exemplar.png,NA,red_foam_arch_extension.png,NA,NA,NA
205,51,NA,5206,26,survey-text,9,32427,WebKit,NA,NA,NA,NA,NA,NA,"{""extensionRightImg_exemplar_commonalities"":""Both blue""}",NA,blue_yarn_arch_exemplar.png,NA,NA,blue_crepe_lamp_extension.png,NA,NA
205,51,"[{""page_index"":0,""viewing_time"":1351}]",1351,26,instructions,10,33779,WebKit,NA,NA,NA,NA,NA,NA,NA,NA,NA,NA,NA,NA,NA,NA
205,51,NA,2278,26,survey-text,11,36059,WebKit,NA,NA,NA,NA,NA,NA,"{""Age"":""26""}",NA,NA,NA,NA,NA,NA,NA
205,51,NA,4255,26,survey-multi-choice,12,40316,WebKit,NA,NA,NA,NA,NA,NA,"{""BornUSA"":""Yes"",""ChildhoodUSA"":""Yes"",""CurrentUSA"":""Yes""}",NA,NA,NA,NA,NA,"[0,1,2]",NA
205,51,NA,10985,26,survey-text,13,51307,WebKit,NA,NA,NA,NA,NA,NA,"{""CurrentZipcode"":""522"",""ChildhoodZipcode"":""554""}",NA,NA,NA,NA,NA,NA,NA
205,51,NA,5710,26,survey-text,14,57019,WebKit,NA,NA,NA,NA,NA,NA,"{""FirstLanguage"":""English"",""AllLanguages"":""English, French""}",NA,NA,NA,NA,NA,NA,NA
205,51,NA,3935,26,html-slider-response,15,60955,WebKit,NA,NA,NA,NA,NA,<p>How would you describe the location <b>where you currently live</b>?</p>,35,NA,NA,NA,NA,NA,NA,50
205,51,NA,2319,26,html-slider-response,16,63275,WebKit,NA,NA,NA,NA,NA,"<p>How would you describe the location <b>where you grew up</b> (if multiple, choose the one that you spent the most time in before 18 years old)?</p>",61,NA,NA,NA,NA,NA,NA,50
205,51,"[{""page_index"":0,""viewing_time"":5255}]",5255,26,instructions,17,68531,WebKit,NA,NA,NA,NA,NA,NA,NA,NA,NA,NA,NA,NA,NA,NA
283,27,"[{""page_index"":0,""viewing_time"":4112}]",4114,27,instructions,0,4119,Macintosh,NA,NA,NA,NA,NA,NA,NA,NA,NA,NA,NA,NA,NA,NA
283,27,NA,NA,27,fullscreen,1,8672,Macintosh,TRUE,NA,NA,NA,NA,NA,NA,NA,NA,NA,NA,NA,NA,NA
283,27,"[{""page_index"":0,""viewing_time"":5540}]",5540,27,instructions,2,14214,Macintosh,NA,NA,NA,NA,NA,NA,NA,NA,NA,NA,NA,NA,NA,NA
283,27,NA,NA,27,preload,3,14525,Macintosh,TRUE,FALSE,[],[],[],NA,NA,NA,NA,NA,NA,NA,NA,NA
283,27,NA,null,27,html-button-response,4,19528,Macintosh,NA,NA,NA,NA,NA,"<p>This is a dax.</p> 
<img src=""yellow_foam_lamp_exemplar.png"" height=""300"" width=""300""></img>",null,dax,yellow_foam_lamp_exemplar.png,NA,NA,NA,NA,NA
283,27,NA,NA,27,preload,5,19531,Macintosh,TRUE,FALSE,[],[],[],NA,NA,NA,NA,NA,NA,NA,NA,NA
283,27,NA,22225,27,html-button-response,6,41757,Macintosh,NA,NA,NA,NA,NA,"<p>This is a dax.</p> 
<img src=""yellow_foam_lamp_exemplar.png"" height=""300"" width=""300""></img>
<p>One of these is also a dax.</p>",2,NA,NA,yellow_yarn_snowman_extension.png,red_foam_arch_extension.png,blue_crepe_lamp_extension.png,NA,NA
283,27,NA,28572,27,survey-text,7,70369,Macintosh,NA,NA,NA,NA,NA,NA,"{""extensionLeftImg_exemplar_commonalities"":""They are both the same color and have lines.""}",NA,yellow_foam_lamp_exemplar.png,yellow_yarn_snowman_extension.png,NA,NA,NA,NA
283,27,NA,14082,27,survey-text,8,84456,Macintosh,NA,NA,NA,NA,NA,NA,"{""extensionCenterImg_exemplar_commonalities"":""They both have squiggly lines.""}",NA,yellow_foam_lamp_exemplar.png,NA,red_foam_arch_extension.png,NA,NA,NA
283,27,NA,19533,27,survey-text,9,103993,Macintosh,NA,NA,NA,NA,NA,NA,"{""extensionRightImg_exemplar_commonalities"":""They are both similar shapes. ""}",NA,yellow_foam_lamp_exemplar.png,NA,NA,blue_crepe_lamp_extension.png,NA,NA
283,27,"[{""page_index"":0,""viewing_time"":4319}]",4320,27,instructions,10,108315,Macintosh,NA,NA,NA,NA,NA,NA,NA,NA,NA,NA,NA,NA,NA,NA
283,27,NA,3474,27,survey-text,11,111793,Macintosh,NA,NA,NA,NA,NA,NA,"{""Age"":""60""}",NA,NA,NA,NA,NA,NA,NA
283,27,NA,8943,27,survey-multi-choice,12,120748,Macintosh,NA,NA,NA,NA,NA,NA,"{""BornUSA"":""Yes"",""ChildhoodUSA"":""Yes"",""CurrentUSA"":""Yes""}",NA,NA,NA,NA,NA,"[0,1,2]",NA
283,27,NA,22479,27,survey-text,13,143243,Macintosh,NA,NA,NA,NA,NA,NA,"{""CurrentZipcode"":""604"",""ChildhoodZipcode"":""606""}",NA,NA,NA,NA,NA,NA,NA
283,27,NA,13791,27,survey-text,14,157038,Macintosh,NA,NA,NA,NA,NA,NA,"{""FirstLanguage"":""English"",""AllLanguages"":""English""}",NA,NA,NA,NA,NA,NA,NA
283,27,NA,8447,27,html-slider-response,15,165489,Macintosh,NA,NA,NA,NA,NA,<p>How would you describe the location <b>where you currently live</b>?</p>,48,NA,NA,NA,NA,NA,NA,50
283,27,NA,19146,27,html-slider-response,16,184638,Macintosh,NA,NA,NA,NA,NA,"<p>How would you describe the location <b>where you grew up</b> (if multiple, choose the one that you spent the most time in before 18 years old)?</p>",59,NA,NA,NA,NA,NA,NA,50
283,27,"[{""page_index"":0,""viewing_time"":16716}]",16717,27,instructions,17,201356,Macintosh,NA,NA,NA,NA,NA,NA,NA,NA,NA,NA,NA,NA,NA,NA
403,40,"[{""page_index"":0,""viewing_time"":2921}]",2922,28,instructions,0,2926,WebKit,NA,NA,NA,NA,NA,NA,NA,NA,NA,NA,NA,NA,NA,NA
403,40,NA,NA,28,fullscreen,1,6599,WebKit,TRUE,NA,NA,NA,NA,NA,NA,NA,NA,NA,NA,NA,NA,NA
403,40,"[{""page_index"":0,""viewing_time"":2509}]",2510,28,instructions,2,9113,WebKit,NA,NA,NA,NA,NA,NA,NA,NA,NA,NA,NA,NA,NA,NA
403,40,NA,NA,28,preload,3,9433,WebKit,TRUE,FALSE,[],[],[],NA,NA,NA,NA,NA,NA,NA,NA,NA
403,40,NA,null,28,html-button-response,4,14451,WebKit,NA,NA,NA,NA,NA,"<p>This is a coba.</p> 
<img src=""red_crepe_snowman_exemplar.png"" height=""300"" width=""300""></img>",null,coba,red_crepe_snowman_exemplar.png,NA,NA,NA,NA,NA
403,40,NA,NA,28,preload,5,14454,WebKit,TRUE,FALSE,[],[],[],NA,NA,NA,NA,NA,NA,NA,NA,NA
403,40,NA,5187,28,html-button-response,6,19643,WebKit,NA,NA,NA,NA,NA,"<p>This is a coba.</p> 
<img src=""red_crepe_snowman_exemplar.png"" height=""300"" width=""300""></img>
<p>One of these is also a coba.</p>",1,NA,NA,yellow_yarn_snowman_extension.png,blue_crepe_lamp_extension.png,red_foam_arch_extension.png,NA,NA
403,40,NA,9723,28,survey-text,7,29393,WebKit,NA,NA,NA,NA,NA,NA,"{""extensionLeftImg_exemplar_commonalities"":""the shape""}",NA,red_crepe_snowman_exemplar.png,yellow_yarn_snowman_extension.png,NA,NA,NA,NA
403,40,NA,8351,28,survey-text,8,37758,WebKit,NA,NA,NA,NA,NA,NA,"{""extensionCenterImg_exemplar_commonalities"":""the material""}",NA,red_crepe_snowman_exemplar.png,NA,blue_crepe_lamp_extension.png,NA,NA,NA
403,40,NA,21069,28,survey-text,9,58859,WebKit,NA,NA,NA,NA,NA,NA,"{""extensionRightImg_exemplar_commonalities"":""a shade of pink in color""}",NA,red_crepe_snowman_exemplar.png,NA,NA,red_foam_arch_extension.png,NA,NA
403,40,"[{""page_index"":0,""viewing_time"":2215}]",2216,28,instructions,10,61079,WebKit,NA,NA,NA,NA,NA,NA,NA,NA,NA,NA,NA,NA,NA,NA
403,40,NA,3880,28,survey-text,11,64972,WebKit,NA,NA,NA,NA,NA,NA,"{""Age"":""35""}",NA,NA,NA,NA,NA,NA,NA
403,40,NA,7378,28,survey-multi-choice,12,72354,WebKit,NA,NA,NA,NA,NA,NA,"{""BornUSA"":""Yes"",""ChildhoodUSA"":""Yes"",""CurrentUSA"":""Yes""}",NA,NA,NA,NA,NA,"[0,1,2]",NA
403,40,NA,24088,28,survey-text,13,96471,WebKit,NA,NA,NA,NA,NA,NA,"{""CurrentZipcode"":""330"",""ChildhoodZipcode"":""331""}",NA,NA,NA,NA,NA,NA,NA
403,40,NA,13713,28,survey-text,14,110216,WebKit,NA,NA,NA,NA,NA,NA,"{""FirstLanguage"":""english"",""AllLanguages"":""english""}",NA,NA,NA,NA,NA,NA,NA
403,40,NA,5907,28,html-slider-response,15,116128,WebKit,NA,NA,NA,NA,NA,<p>How would you describe the location <b>where you currently live</b>?</p>,44,NA,NA,NA,NA,NA,NA,50
403,40,NA,5802,28,html-slider-response,16,121935,WebKit,NA,NA,NA,NA,NA,"<p>How would you describe the location <b>where you grew up</b> (if multiple, choose the one that you spent the most time in before 18 years old)?</p>",45,NA,NA,NA,NA,NA,NA,50
403,40,"[{""page_index"":0,""viewing_time"":2185}]",2187,28,instructions,17,124125,WebKit,NA,NA,NA,NA,NA,NA,NA,NA,NA,NA,NA,NA,NA,NA
202,12,"[{""page_index"":0,""viewing_time"":3028}]",3028,29,instructions,0,3031,WebKit,NA,NA,NA,NA,NA,NA,NA,NA,NA,NA,NA,NA,NA,NA
202,12,NA,NA,29,fullscreen,1,5304,WebKit,TRUE,NA,NA,NA,NA,NA,NA,NA,NA,NA,NA,NA,NA,NA
202,12,"[{""page_index"":0,""viewing_time"":2590}]",2590,29,instructions,2,7896,WebKit,NA,NA,NA,NA,NA,NA,NA,NA,NA,NA,NA,NA,NA,NA
202,12,NA,NA,29,preload,3,8642,WebKit,TRUE,FALSE,[],[],[],NA,NA,NA,NA,NA,NA,NA,NA,NA
202,12,NA,null,29,html-button-response,4,13645,WebKit,NA,NA,NA,NA,NA,"<p>This is a fep.</p> 
<img src=""yellow_foam_lamp_exemplar.png"" height=""300"" width=""300""></img>",null,fep,yellow_foam_lamp_exemplar.png,NA,NA,NA,NA,NA
202,12,NA,NA,29,preload,5,13647,WebKit,TRUE,FALSE,[],[],[],NA,NA,NA,NA,NA,NA,NA,NA,NA
202,12,NA,4187,29,html-button-response,6,17835,WebKit,NA,NA,NA,NA,NA,"<p>This is a fep.</p> 
<img src=""yellow_foam_lamp_exemplar.png"" height=""300"" width=""300""></img>
<p>One of these is also a fep.</p>",0,NA,NA,blue_crepe_lamp_extension.png,yellow_yarn_snowman_extension.png,red_foam_arch_extension.png,NA,NA
202,12,NA,10937,29,survey-text,7,28791,WebKit,NA,NA,NA,NA,NA,NA,"{""extensionLeftImg_exemplar_commonalities"":""similar shape""}",NA,yellow_foam_lamp_exemplar.png,blue_crepe_lamp_extension.png,NA,NA,NA,NA
202,12,NA,6710,29,survey-text,8,35511,WebKit,NA,NA,NA,NA,NA,NA,"{""extensionCenterImg_exemplar_commonalities"":""color""}",NA,yellow_foam_lamp_exemplar.png,NA,yellow_yarn_snowman_extension.png,NA,NA,NA
202,12,NA,7327,29,survey-text,9,42844,WebKit,NA,NA,NA,NA,NA,NA,"{""extensionRightImg_exemplar_commonalities"":""design""}",NA,yellow_foam_lamp_exemplar.png,NA,NA,red_foam_arch_extension.png,NA,NA
202,12,"[{""page_index"":0,""viewing_time"":1801}]",1801,29,instructions,10,44646,WebKit,NA,NA,NA,NA,NA,NA,NA,NA,NA,NA,NA,NA,NA,NA
202,12,NA,2802,29,survey-text,11,47455,WebKit,NA,NA,NA,NA,NA,NA,"{""Age"":""52""}",NA,NA,NA,NA,NA,NA,NA
202,12,NA,4698,29,survey-multi-choice,12,52155,WebKit,NA,NA,NA,NA,NA,NA,"{""BornUSA"":""Yes"",""ChildhoodUSA"":""Yes"",""CurrentUSA"":""Yes""}",NA,NA,NA,NA,NA,"[0,1,2]",NA
202,12,NA,8478,29,survey-text,13,60652,WebKit,NA,NA,NA,NA,NA,NA,"{""CurrentZipcode"":""193"",""ChildhoodZipcode"":""193""}",NA,NA,NA,NA,NA,NA,NA
202,12,NA,8462,29,survey-text,14,69122,WebKit,NA,NA,NA,NA,NA,NA,"{""FirstLanguage"":""english"",""AllLanguages"":""english""}",NA,NA,NA,NA,NA,NA,NA
202,12,NA,3410,29,html-slider-response,15,72534,WebKit,NA,NA,NA,NA,NA,<p>How would you describe the location <b>where you currently live</b>?</p>,50,NA,NA,NA,NA,NA,NA,50
202,12,NA,5038,29,html-slider-response,16,77573,WebKit,NA,NA,NA,NA,NA,"<p>How would you describe the location <b>where you grew up</b> (if multiple, choose the one that you spent the most time in before 18 years old)?</p>",43,NA,NA,NA,NA,NA,NA,50
202,12,"[{""page_index"":0,""viewing_time"":2266}]",2266,29,instructions,17,79841,WebKit,NA,NA,NA,NA,NA,NA,NA,NA,NA,NA,NA,NA,NA,NA
64,47,"[{""page_index"":0,""viewing_time"":3070}]",3070,30,instructions,0,3072,WebKit,NA,NA,NA,NA,NA,NA,NA,NA,NA,NA,NA,NA,NA,NA
64,47,NA,NA,30,fullscreen,1,6200,WebKit,TRUE,NA,NA,NA,NA,NA,NA,NA,NA,NA,NA,NA,NA,NA
64,47,"[{""page_index"":0,""viewing_time"":2316}]",2316,30,instructions,2,8517,WebKit,NA,NA,NA,NA,NA,NA,NA,NA,NA,NA,NA,NA,NA,NA
64,47,NA,NA,30,preload,3,8698,WebKit,TRUE,FALSE,[],[],[],NA,NA,NA,NA,NA,NA,NA,NA,NA
64,47,NA,null,30,html-button-response,4,13719,WebKit,NA,NA,NA,NA,NA,"<p>This is a coba.</p> 
<img src=""yellow_foam_lamp_exemplar.png"" height=""300"" width=""300""></img>",null,coba,yellow_foam_lamp_exemplar.png,NA,NA,NA,NA,NA
64,47,NA,NA,30,preload,5,13720,WebKit,TRUE,FALSE,[],[],[],NA,NA,NA,NA,NA,NA,NA,NA,NA
64,47,NA,15792,30,html-button-response,6,29513,WebKit,NA,NA,NA,NA,NA,"<p>This is a coba.</p> 
<img src=""yellow_foam_lamp_exemplar.png"" height=""300"" width=""300""></img>
<p>One of these is also a coba.</p>",0,NA,NA,blue_crepe_lamp_extension.png,red_foam_arch_extension.png,yellow_yarn_snowman_extension.png,NA,NA
64,47,NA,7165,30,survey-text,7,36684,WebKit,NA,NA,NA,NA,NA,NA,"{""extensionLeftImg_exemplar_commonalities"":""Shape""}",NA,yellow_foam_lamp_exemplar.png,blue_crepe_lamp_extension.png,NA,NA,NA,NA
64,47,NA,16122,30,survey-text,8,52809,WebKit,NA,NA,NA,NA,NA,NA,"{""extensionCenterImg_exemplar_commonalities"":""squiglies""}",NA,yellow_foam_lamp_exemplar.png,NA,red_foam_arch_extension.png,NA,NA,NA
64,47,NA,13236,30,survey-text,9,66047,WebKit,NA,NA,NA,NA,NA,NA,"{""extensionRightImg_exemplar_commonalities"":""yellow""}",NA,yellow_foam_lamp_exemplar.png,NA,NA,yellow_yarn_snowman_extension.png,NA,NA
64,47,"[{""page_index"":0,""viewing_time"":2622}]",2622,30,instructions,10,68670,WebKit,NA,NA,NA,NA,NA,NA,NA,NA,NA,NA,NA,NA,NA,NA
64,47,NA,2669,30,survey-text,11,71343,WebKit,NA,NA,NA,NA,NA,NA,"{""Age"":""66""}",NA,NA,NA,NA,NA,NA,NA
64,47,NA,5986,30,survey-multi-choice,12,77331,WebKit,NA,NA,NA,NA,NA,NA,"{""BornUSA"":""Yes"",""ChildhoodUSA"":""Yes"",""CurrentUSA"":""Yes""}",NA,NA,NA,NA,NA,"[0,1,2]",NA
64,47,NA,24797,30,survey-text,13,102137,WebKit,NA,NA,NA,NA,NA,NA,"{""CurrentZipcode"":""201"",""ChildhoodZipcode"":""947""}",NA,NA,NA,NA,NA,NA,NA
64,47,NA,9858,30,survey-text,14,111999,WebKit,NA,NA,NA,NA,NA,NA,"{""FirstLanguage"":""English"",""AllLanguages"":""English""}",NA,NA,NA,NA,NA,NA,NA
64,47,NA,8966,30,html-slider-response,15,120966,WebKit,NA,NA,NA,NA,NA,<p>How would you describe the location <b>where you currently live</b>?</p>,58,NA,NA,NA,NA,NA,NA,50
64,47,NA,404072,30,html-slider-response,16,525041,WebKit,NA,NA,NA,NA,NA,"<p>How would you describe the location <b>where you grew up</b> (if multiple, choose the one that you spent the most time in before 18 years old)?</p>",45,NA,NA,NA,NA,NA,NA,50
64,47,"[{""page_index"":0,""viewing_time"":3600}]",3600,30,instructions,17,528642,WebKit,NA,NA,NA,NA,NA,NA,NA,NA,NA,NA,NA,NA,NA,NA
264,11,"[{""page_index"":0,""viewing_time"":1378}]",1378,31,instructions,0,1380,WebKit,NA,NA,NA,NA,NA,NA,NA,NA,NA,NA,NA,NA,NA,NA
264,11,NA,NA,31,fullscreen,1,3710,WebKit,TRUE,NA,NA,NA,NA,NA,NA,NA,NA,NA,NA,NA,NA,NA
264,11,"[{""page_index"":0,""viewing_time"":1624}]",1624,31,instructions,2,5335,WebKit,NA,NA,NA,NA,NA,NA,NA,NA,NA,NA,NA,NA,NA,NA
264,11,NA,NA,31,preload,3,5683,WebKit,TRUE,FALSE,[],[],[],NA,NA,NA,NA,NA,NA,NA,NA,NA
264,11,NA,null,31,html-button-response,4,10685,WebKit,NA,NA,NA,NA,NA,"<p>This is a fep.</p> 
<img src=""yellow_foam_lamp_exemplar.png"" height=""300"" width=""300""></img>",null,fep,yellow_foam_lamp_exemplar.png,NA,NA,NA,NA,NA
264,11,NA,NA,31,preload,5,10687,WebKit,TRUE,FALSE,[],[],[],NA,NA,NA,NA,NA,NA,NA,NA,NA
264,11,NA,3517,31,html-button-response,6,14205,WebKit,NA,NA,NA,NA,NA,"<p>This is a fep.</p> 
<img src=""yellow_foam_lamp_exemplar.png"" height=""300"" width=""300""></img>
<p>One of these is also a fep.</p>",0,NA,NA,blue_crepe_lamp_extension.png,red_foam_arch_extension.png,yellow_yarn_snowman_extension.png,NA,NA
264,11,NA,6165,31,survey-text,7,20377,WebKit,NA,NA,NA,NA,NA,NA,"{""extensionLeftImg_exemplar_commonalities"":""Shape""}",NA,yellow_foam_lamp_exemplar.png,blue_crepe_lamp_extension.png,NA,NA,NA,NA
264,11,NA,17049,31,survey-text,8,37432,WebKit,NA,NA,NA,NA,NA,NA,"{""extensionCenterImg_exemplar_commonalities"":""Design on them""}",NA,yellow_foam_lamp_exemplar.png,NA,red_foam_arch_extension.png,NA,NA,NA
264,11,NA,9210,31,survey-text,9,46646,WebKit,NA,NA,NA,NA,NA,NA,"{""extensionRightImg_exemplar_commonalities"":""nothing""}",NA,yellow_foam_lamp_exemplar.png,NA,NA,yellow_yarn_snowman_extension.png,NA,NA
264,11,"[{""page_index"":0,""viewing_time"":1586}]",1586,31,instructions,10,48233,WebKit,NA,NA,NA,NA,NA,NA,NA,NA,NA,NA,NA,NA,NA,NA
264,11,NA,1920,31,survey-text,11,50157,WebKit,NA,NA,NA,NA,NA,NA,"{""Age"":""34""}",NA,NA,NA,NA,NA,NA,NA
264,11,NA,5757,31,survey-multi-choice,12,55915,WebKit,NA,NA,NA,NA,NA,NA,"{""BornUSA"":""Yes"",""ChildhoodUSA"":""Yes"",""CurrentUSA"":""Yes""}",NA,NA,NA,NA,NA,"[0,1,2]",NA
264,11,NA,9600,31,survey-text,13,65523,WebKit,NA,NA,NA,NA,NA,NA,"{""CurrentZipcode"":""974"",""ChildhoodZipcode"":""974""}",NA,NA,NA,NA,NA,NA,NA
264,11,NA,11371,31,survey-text,14,76899,WebKit,NA,NA,NA,NA,NA,NA,"{""FirstLanguage"":""English"",""AllLanguages"":""English""}",NA,NA,NA,NA,NA,NA,NA
264,11,NA,9966,31,html-slider-response,15,86867,WebKit,NA,NA,NA,NA,NA,<p>How would you describe the location <b>where you currently live</b>?</p>,0,NA,NA,NA,NA,NA,NA,50
264,11,NA,2525,31,html-slider-response,16,89393,WebKit,NA,NA,NA,NA,NA,"<p>How would you describe the location <b>where you grew up</b> (if multiple, choose the one that you spent the most time in before 18 years old)?</p>",0,NA,NA,NA,NA,NA,NA,50
264,11,"[{""page_index"":0,""viewing_time"":1327}]",1327,31,instructions,17,90721,WebKit,NA,NA,NA,NA,NA,NA,NA,NA,NA,NA,NA,NA,NA,NA
178,24,"[{""page_index"":0,""viewing_time"":1999}]",1999,32,instructions,0,2000,WebKit,NA,NA,NA,NA,NA,NA,NA,NA,NA,NA,NA,NA,NA,NA
178,24,NA,NA,32,fullscreen,1,4816,WebKit,TRUE,NA,NA,NA,NA,NA,NA,NA,NA,NA,NA,NA,NA,NA
178,24,"[{""page_index"":0,""viewing_time"":1287}]",1287,32,instructions,2,6104,WebKit,NA,NA,NA,NA,NA,NA,NA,NA,NA,NA,NA,NA,NA,NA
178,24,NA,NA,32,preload,3,6500,WebKit,TRUE,FALSE,[],[],[],NA,NA,NA,NA,NA,NA,NA,NA,NA
178,24,NA,null,32,html-button-response,4,11502,WebKit,NA,NA,NA,NA,NA,"<p>This is a dax.</p> 
<img src=""red_crepe_snowman_exemplar.png"" height=""300"" width=""300""></img>",null,dax,red_crepe_snowman_exemplar.png,NA,NA,NA,NA,NA
178,24,NA,NA,32,preload,5,11503,WebKit,TRUE,FALSE,[],[],[],NA,NA,NA,NA,NA,NA,NA,NA,NA
178,24,NA,2458,32,html-button-response,6,13961,WebKit,NA,NA,NA,NA,NA,"<p>This is a dax.</p> 
<img src=""red_crepe_snowman_exemplar.png"" height=""300"" width=""300""></img>
<p>One of these is also a dax.</p>",1,NA,NA,blue_crepe_lamp_extension.png,yellow_yarn_snowman_extension.png,red_foam_arch_extension.png,NA,NA
178,24,NA,13869,32,survey-text,7,27835,WebKit,NA,NA,NA,NA,NA,NA,"{""extensionLeftImg_exemplar_commonalities"":""they both are made of crep paper""}",NA,red_crepe_snowman_exemplar.png,blue_crepe_lamp_extension.png,NA,NA,NA,NA
178,24,NA,4289,32,survey-text,8,32126,WebKit,NA,NA,NA,NA,NA,NA,"{""extensionCenterImg_exemplar_commonalities"":""same shape""}",NA,red_crepe_snowman_exemplar.png,NA,yellow_yarn_snowman_extension.png,NA,NA,NA
178,24,NA,7303,32,survey-text,9,39430,WebKit,NA,NA,NA,NA,NA,NA,"{""extensionRightImg_exemplar_commonalities"":""similar color""}",NA,red_crepe_snowman_exemplar.png,NA,NA,red_foam_arch_extension.png,NA,NA
178,24,"[{""page_index"":0,""viewing_time"":2120}]",2120,32,instructions,10,41551,WebKit,NA,NA,NA,NA,NA,NA,NA,NA,NA,NA,NA,NA,NA,NA
178,24,NA,3304,32,survey-text,11,44857,WebKit,NA,NA,NA,NA,NA,NA,"{""Age"":""42""}",NA,NA,NA,NA,NA,NA,NA
178,24,NA,5703,32,survey-multi-choice,12,50562,WebKit,NA,NA,NA,NA,NA,NA,"{""BornUSA"":""Yes"",""ChildhoodUSA"":""No"",""CurrentUSA"":""Yes""}",NA,NA,NA,NA,NA,"[0,1,2]",NA
178,24,NA,11350,32,survey-text,13,61918,WebKit,NA,NA,NA,NA,NA,NA,"{""CurrentZipcode"":""760"",""ChildhoodZipcode"":""760""}",NA,NA,NA,NA,NA,NA,NA
178,24,NA,8783,32,survey-text,14,70704,WebKit,NA,NA,NA,NA,NA,NA,"{""FirstLanguage"":""english"",""AllLanguages"":""english""}",NA,NA,NA,NA,NA,NA,NA
178,24,NA,4089,32,html-slider-response,15,74795,WebKit,NA,NA,NA,NA,NA,<p>How would you describe the location <b>where you currently live</b>?</p>,2,NA,NA,NA,NA,NA,NA,50
178,24,NA,4762,32,html-slider-response,16,79558,WebKit,NA,NA,NA,NA,NA,"<p>How would you describe the location <b>where you grew up</b> (if multiple, choose the one that you spent the most time in before 18 years old)?</p>",20,NA,NA,NA,NA,NA,NA,50
178,24,"[{""page_index"":0,""viewing_time"":1697}]",1697,32,instructions,17,81256,WebKit,NA,NA,NA,NA,NA,NA,NA,NA,NA,NA,NA,NA,NA,NA
141,8,"[{""page_index"":0,""viewing_time"":2674}]",2674,33,instructions,0,2674,NA,NA,NA,NA,NA,NA,NA,NA,NA,NA,NA,NA,NA,NA,NA
141,8,NA,NA,33,fullscreen,1,5203,NA,TRUE,NA,NA,NA,NA,NA,NA,NA,NA,NA,NA,NA,NA,NA
141,8,"[{""page_index"":0,""viewing_time"":1300}]",1300,33,instructions,2,6504,NA,NA,NA,NA,NA,NA,NA,NA,NA,NA,NA,NA,NA,NA,NA
141,8,NA,NA,33,preload,3,7245,NA,TRUE,FALSE,[],[],[],NA,NA,NA,NA,NA,NA,NA,NA,NA
141,8,NA,null,33,html-button-response,4,12252,NA,NA,NA,NA,NA,NA,"<p>This is a fep.</p> 
<img src=""yellow_foam_lamp_exemplar.png"" height=""300"" width=""300""></img>",null,fep,yellow_foam_lamp_exemplar.png,NA,NA,NA,NA,NA
141,8,NA,NA,33,preload,5,12257,NA,TRUE,FALSE,[],[],[],NA,NA,NA,NA,NA,NA,NA,NA,NA
141,8,NA,6951,33,html-button-response,6,19212,NA,NA,NA,NA,NA,NA,"<p>This is a fep.</p> 
<img src=""yellow_foam_lamp_exemplar.png"" height=""300"" width=""300""></img>
<p>One of these is also a fep.</p>",1,NA,NA,red_foam_arch_extension.png,blue_crepe_lamp_extension.png,yellow_yarn_snowman_extension.png,NA,NA
141,8,NA,8189,33,survey-text,7,27410,NA,NA,NA,NA,NA,NA,NA,"{""extensionLeftImg_exemplar_commonalities"":""diagonal wavy lines""}",NA,yellow_foam_lamp_exemplar.png,red_foam_arch_extension.png,NA,NA,NA,NA
141,8,NA,4603,33,survey-text,8,32016,NA,NA,NA,NA,NA,NA,NA,"{""extensionCenterImg_exemplar_commonalities"":""similar shape""}",NA,yellow_foam_lamp_exemplar.png,NA,blue_crepe_lamp_extension.png,NA,NA,NA
141,8,NA,5746,33,survey-text,9,37764,NA,NA,NA,NA,NA,NA,NA,"{""extensionRightImg_exemplar_commonalities"":""both are yellow""}",NA,yellow_foam_lamp_exemplar.png,NA,NA,yellow_yarn_snowman_extension.png,NA,NA
141,8,"[{""page_index"":0,""viewing_time"":1530}]",1530,33,instructions,10,39295,NA,NA,NA,NA,NA,NA,NA,NA,NA,NA,NA,NA,NA,NA,NA
141,8,NA,2863,33,survey-text,11,42160,NA,NA,NA,NA,NA,NA,NA,"{""Age"":""47""}",NA,NA,NA,NA,NA,NA,NA
141,8,NA,6409,33,survey-multi-choice,12,48573,NA,NA,NA,NA,NA,NA,NA,"{""BornUSA"":""No"",""ChildhoodUSA"":""No"",""CurrentUSA"":""Yes""}",NA,NA,NA,NA,NA,"[0,1,2]",NA
141,8,NA,55280,33,survey-text,13,103861,NA,NA,NA,NA,NA,NA,NA,"{""CurrentZipcode"":""730"",""ChildhoodZipcode"":""517""}",NA,NA,NA,NA,NA,NA,NA
141,8,NA,19037,33,survey-text,14,122902,NA,NA,NA,NA,NA,NA,NA,"{""FirstLanguage"":""Telugu"",""AllLanguages"":""Telugu\nHindi\nEnglish""}",NA,NA,NA,NA,NA,NA,NA
141,8,NA,2971,33,html-slider-response,15,125875,NA,NA,NA,NA,NA,NA,<p>How would you describe the location <b>where you currently live</b>?</p>,50,NA,NA,NA,NA,NA,NA,50
141,8,NA,3190,33,html-slider-response,16,129069,NA,NA,NA,NA,NA,NA,"<p>How would you describe the location <b>where you grew up</b> (if multiple, choose the one that you spent the most time in before 18 years old)?</p>",23,NA,NA,NA,NA,NA,NA,50
141,8,"[{""page_index"":0,""viewing_time"":4419}]",4420,33,instructions,17,133491,NA,NA,NA,NA,NA,NA,NA,NA,NA,NA,NA,NA,NA,NA,NA
248,9,"[{""page_index"":0,""viewing_time"":1502}]",1502,38,instructions,0,1503,WebKit,NA,NA,NA,NA,NA,NA,NA,NA,NA,NA,NA,NA,NA,NA
248,9,NA,NA,38,fullscreen,1,3668,WebKit,TRUE,NA,NA,NA,NA,NA,NA,NA,NA,NA,NA,NA,NA,NA
248,9,"[{""page_index"":0,""viewing_time"":1112}]",1112,38,instructions,2,4781,WebKit,NA,NA,NA,NA,NA,NA,NA,NA,NA,NA,NA,NA,NA,NA
248,9,NA,NA,38,preload,3,5336,WebKit,TRUE,FALSE,[],[],[],NA,NA,NA,NA,NA,NA,NA,NA,NA
248,9,NA,null,38,html-button-response,4,10347,WebKit,NA,NA,NA,NA,NA,"<p>This is a fep.</p> 
<img src=""yellow_foam_lamp_exemplar.png"" height=""300"" width=""300""></img>",null,fep,yellow_foam_lamp_exemplar.png,NA,NA,NA,NA,NA
248,9,NA,NA,38,preload,5,10347,WebKit,TRUE,FALSE,[],[],[],NA,NA,NA,NA,NA,NA,NA,NA,NA
248,9,NA,3562,38,html-button-response,6,13910,WebKit,NA,NA,NA,NA,NA,"<p>This is a fep.</p> 
<img src=""yellow_foam_lamp_exemplar.png"" height=""300"" width=""300""></img>
<p>One of these is also a fep.</p>",2,NA,NA,yellow_yarn_snowman_extension.png,red_foam_arch_extension.png,blue_crepe_lamp_extension.png,NA,NA
248,9,NA,4716,38,survey-text,7,18630,WebKit,NA,NA,NA,NA,NA,NA,"{""extensionLeftImg_exemplar_commonalities"":""shape and color""}",NA,yellow_foam_lamp_exemplar.png,yellow_yarn_snowman_extension.png,NA,NA,NA,NA
248,9,NA,11480,38,survey-text,8,30110,WebKit,NA,NA,NA,NA,NA,NA,"{""extensionCenterImg_exemplar_commonalities"":""pattern and proportion""}",NA,yellow_foam_lamp_exemplar.png,NA,red_foam_arch_extension.png,NA,NA,NA
248,9,NA,3271,38,survey-text,9,33382,WebKit,NA,NA,NA,NA,NA,NA,"{""extensionRightImg_exemplar_commonalities"":""shape""}",NA,yellow_foam_lamp_exemplar.png,NA,NA,blue_crepe_lamp_extension.png,NA,NA
248,9,"[{""page_index"":0,""viewing_time"":1393}]",1393,38,instructions,10,34776,WebKit,NA,NA,NA,NA,NA,NA,NA,NA,NA,NA,NA,NA,NA,NA
248,9,NA,1716,38,survey-text,11,36493,WebKit,NA,NA,NA,NA,NA,NA,"{""Age"":""19""}",NA,NA,NA,NA,NA,NA,NA
248,9,NA,4469,38,survey-multi-choice,12,40963,WebKit,NA,NA,NA,NA,NA,NA,"{""BornUSA"":""Yes"",""ChildhoodUSA"":""Yes"",""CurrentUSA"":""Yes""}",NA,NA,NA,NA,NA,"[0,1,2]",NA
248,9,NA,6571,38,survey-text,13,47539,WebKit,NA,NA,NA,NA,NA,NA,"{""CurrentZipcode"":""330"",""ChildhoodZipcode"":""330""}",NA,NA,NA,NA,NA,NA,NA
248,9,NA,5380,38,survey-text,14,52921,WebKit,NA,NA,NA,NA,NA,NA,"{""FirstLanguage"":""English"",""AllLanguages"":""English""}",NA,NA,NA,NA,NA,NA,NA
248,9,NA,12415,38,html-slider-response,15,65337,WebKit,NA,NA,NA,NA,NA,<p>How would you describe the location <b>where you currently live</b>?</p>,50,NA,NA,NA,NA,NA,NA,50
248,9,NA,2336,38,html-slider-response,16,67673,WebKit,NA,NA,NA,NA,NA,"<p>How would you describe the location <b>where you grew up</b> (if multiple, choose the one that you spent the most time in before 18 years old)?</p>",50,NA,NA,NA,NA,NA,NA,50
248,9,"[{""page_index"":0,""viewing_time"":1205}]",1205,38,instructions,17,68879,WebKit,NA,NA,NA,NA,NA,NA,NA,NA,NA,NA,NA,NA,NA,NA
91,39,"[{""page_index"":0,""viewing_time"":2661}]",2661,36,instructions,0,2664,WebKit,NA,NA,NA,NA,NA,NA,NA,NA,NA,NA,NA,NA,NA,NA
91,39,NA,NA,36,fullscreen,1,5865,WebKit,TRUE,NA,NA,NA,NA,NA,NA,NA,NA,NA,NA,NA,NA,NA
91,39,"[{""page_index"":0,""viewing_time"":2525}]",2526,36,instructions,2,8392,WebKit,NA,NA,NA,NA,NA,NA,NA,NA,NA,NA,NA,NA,NA,NA
91,39,NA,NA,36,preload,3,8749,WebKit,TRUE,FALSE,[],[],[],NA,NA,NA,NA,NA,NA,NA,NA,NA
91,39,NA,null,36,html-button-response,4,13757,WebKit,NA,NA,NA,NA,NA,"<p>This is a coba.</p> 
<img src=""red_crepe_snowman_exemplar.png"" height=""300"" width=""300""></img>",null,coba,red_crepe_snowman_exemplar.png,NA,NA,NA,NA,NA
91,39,NA,NA,36,preload,5,13759,WebKit,TRUE,FALSE,[],[],[],NA,NA,NA,NA,NA,NA,NA,NA,NA
91,39,NA,6816,36,html-button-response,6,20576,WebKit,NA,NA,NA,NA,NA,"<p>This is a coba.</p> 
<img src=""red_crepe_snowman_exemplar.png"" height=""300"" width=""300""></img>
<p>One of these is also a coba.</p>",2,NA,NA,yellow_yarn_snowman_extension.png,red_foam_arch_extension.png,blue_crepe_lamp_extension.png,NA,NA
91,39,NA,10134,36,survey-text,7,30718,WebKit,NA,NA,NA,NA,NA,NA,"{""extensionLeftImg_exemplar_commonalities"":""the same general shape""}",NA,red_crepe_snowman_exemplar.png,yellow_yarn_snowman_extension.png,NA,NA,NA,NA
91,39,NA,19660,36,survey-text,8,50382,WebKit,NA,NA,NA,NA,NA,NA,"{""extensionCenterImg_exemplar_commonalities"":""they both have the same red base color""}",NA,red_crepe_snowman_exemplar.png,NA,red_foam_arch_extension.png,NA,NA,NA
91,39,NA,9026,36,survey-text,9,59412,WebKit,NA,NA,NA,NA,NA,NA,"{""extensionRightImg_exemplar_commonalities"":""they have the same texture""}",NA,red_crepe_snowman_exemplar.png,NA,NA,blue_crepe_lamp_extension.png,NA,NA
91,39,"[{""page_index"":0,""viewing_time"":2328}]",2329,36,instructions,10,61742,WebKit,NA,NA,NA,NA,NA,NA,NA,NA,NA,NA,NA,NA,NA,NA
91,39,NA,4381,36,survey-text,11,66125,WebKit,NA,NA,NA,NA,NA,NA,"{""Age"":""52""}",NA,NA,NA,NA,NA,NA,NA
91,39,NA,9917,36,survey-multi-choice,12,76045,WebKit,NA,NA,NA,NA,NA,NA,"{""BornUSA"":""Yes"",""ChildhoodUSA"":""Yes"",""CurrentUSA"":""Yes""}",NA,NA,NA,NA,NA,"[0,1,2]",NA
91,39,NA,12204,36,survey-text,13,88259,WebKit,NA,NA,NA,NA,NA,NA,"{""CurrentZipcode"":""490"",""ChildhoodZipcode"":""490""}",NA,NA,NA,NA,NA,NA,NA
91,39,NA,9959,36,survey-text,14,98223,WebKit,NA,NA,NA,NA,NA,NA,"{""FirstLanguage"":""English"",""AllLanguages"":""English""}",NA,NA,NA,NA,NA,NA,NA
91,39,NA,6004,36,html-slider-response,15,104230,WebKit,NA,NA,NA,NA,NA,<p>How would you describe the location <b>where you currently live</b>?</p>,50,NA,NA,NA,NA,NA,NA,50
91,39,NA,4940,36,html-slider-response,16,109174,WebKit,NA,NA,NA,NA,NA,"<p>How would you describe the location <b>where you grew up</b> (if multiple, choose the one that you spent the most time in before 18 years old)?</p>",49,NA,NA,NA,NA,NA,NA,50
91,39,"[{""page_index"":0,""viewing_time"":11792}]",11792,36,instructions,17,120967,WebKit,NA,NA,NA,NA,NA,NA,NA,NA,NA,NA,NA,NA,NA,NA
279,14,"[{""page_index"":0,""viewing_time"":1903}]",1903,35,instructions,0,1904,WebKit,NA,NA,NA,NA,NA,NA,NA,NA,NA,NA,NA,NA,NA,NA
279,14,NA,NA,35,fullscreen,1,4141,WebKit,TRUE,NA,NA,NA,NA,NA,NA,NA,NA,NA,NA,NA,NA,NA
279,14,"[{""page_index"":0,""viewing_time"":1422}]",1422,35,instructions,2,5564,WebKit,NA,NA,NA,NA,NA,NA,NA,NA,NA,NA,NA,NA,NA,NA
279,14,NA,NA,35,preload,3,6142,WebKit,TRUE,FALSE,[],[],[],NA,NA,NA,NA,NA,NA,NA,NA,NA
279,14,NA,null,35,html-button-response,4,11151,WebKit,NA,NA,NA,NA,NA,"<p>This is a fep.</p> 
<img src=""blue_yarn_arch_exemplar.png"" height=""300"" width=""300""></img>",null,fep,blue_yarn_arch_exemplar.png,NA,NA,NA,NA,NA
279,14,NA,NA,35,preload,5,11154,WebKit,TRUE,FALSE,[],[],[],NA,NA,NA,NA,NA,NA,NA,NA,NA
279,14,NA,4164,35,html-button-response,6,15320,WebKit,NA,NA,NA,NA,NA,"<p>This is a fep.</p> 
<img src=""blue_yarn_arch_exemplar.png"" height=""300"" width=""300""></img>
<p>One of these is also a fep.</p>",0,NA,NA,red_foam_arch_extension.png,blue_crepe_lamp_extension.png,yellow_yarn_snowman_extension.png,NA,NA
279,14,NA,6707,35,survey-text,7,22032,WebKit,NA,NA,NA,NA,NA,NA,"{""extensionLeftImg_exemplar_commonalities"":""Shape""}",NA,blue_yarn_arch_exemplar.png,red_foam_arch_extension.png,NA,NA,NA,NA
279,14,NA,4894,35,survey-text,8,26928,WebKit,NA,NA,NA,NA,NA,NA,"{""extensionCenterImg_exemplar_commonalities"":""Color""}",NA,blue_yarn_arch_exemplar.png,NA,blue_crepe_lamp_extension.png,NA,NA,NA
279,14,NA,4958,35,survey-text,9,31888,WebKit,NA,NA,NA,NA,NA,NA,"{""extensionRightImg_exemplar_commonalities"":""Material""}",NA,blue_yarn_arch_exemplar.png,NA,NA,yellow_yarn_snowman_extension.png,NA,NA
279,14,"[{""page_index"":0,""viewing_time"":2739}]",2739,35,instructions,10,34628,WebKit,NA,NA,NA,NA,NA,NA,NA,NA,NA,NA,NA,NA,NA,NA
279,14,NA,2626,35,survey-text,11,37256,WebKit,NA,NA,NA,NA,NA,NA,"{""Age"":""26""}",NA,NA,NA,NA,NA,NA,NA
279,14,NA,11175,35,survey-multi-choice,12,48432,WebKit,NA,NA,NA,NA,NA,NA,"{""BornUSA"":""Yes"",""ChildhoodUSA"":""Yes"",""CurrentUSA"":""Yes""}",NA,NA,NA,NA,NA,"[0,1,2]",NA
279,14,NA,9247,35,survey-text,13,57688,WebKit,NA,NA,NA,NA,NA,NA,"{""CurrentZipcode"":""000"",""ChildhoodZipcode"":""000""}",NA,NA,NA,NA,NA,NA,NA
279,14,NA,8634,35,survey-text,14,66324,WebKit,NA,NA,NA,NA,NA,NA,"{""FirstLanguage"":""English"",""AllLanguages"":""English""}",NA,NA,NA,NA,NA,NA,NA
279,14,NA,3442,35,html-slider-response,15,69768,WebKit,NA,NA,NA,NA,NA,<p>How would you describe the location <b>where you currently live</b>?</p>,15,NA,NA,NA,NA,NA,NA,50
279,14,NA,3667,35,html-slider-response,16,73435,WebKit,NA,NA,NA,NA,NA,"<p>How would you describe the location <b>where you grew up</b> (if multiple, choose the one that you spent the most time in before 18 years old)?</p>",9,NA,NA,NA,NA,NA,NA,50
279,14,"[{""page_index"":0,""viewing_time"":3883}]",3883,35,instructions,17,77320,WebKit,NA,NA,NA,NA,NA,NA,NA,NA,NA,NA,NA,NA,NA,NA
146,4,"[{""page_index"":0,""viewing_time"":2751}]",2751,34,instructions,0,2753,Macintosh,NA,NA,NA,NA,NA,NA,NA,NA,NA,NA,NA,NA,NA,NA
146,4,NA,NA,34,fullscreen,1,5744,Macintosh,TRUE,NA,NA,NA,NA,NA,NA,NA,NA,NA,NA,NA,NA,NA
146,4,"[{""page_index"":0,""viewing_time"":2928}]",2928,34,instructions,2,8672,Macintosh,NA,NA,NA,NA,NA,NA,NA,NA,NA,NA,NA,NA,NA,NA
146,4,NA,NA,34,preload,3,9083,Macintosh,TRUE,FALSE,[],[],[],NA,NA,NA,NA,NA,NA,NA,NA,NA
146,4,NA,null,34,html-button-response,4,14086,Macintosh,NA,NA,NA,NA,NA,"<p>This is a fep.</p> 
<img src=""red_crepe_snowman_exemplar.png"" height=""300"" width=""300""></img>",null,fep,red_crepe_snowman_exemplar.png,NA,NA,NA,NA,NA
146,4,NA,NA,34,preload,5,14087,Macintosh,TRUE,FALSE,[],[],[],NA,NA,NA,NA,NA,NA,NA,NA,NA
146,4,NA,5702,34,html-button-response,6,19790,Macintosh,NA,NA,NA,NA,NA,"<p>This is a fep.</p> 
<img src=""red_crepe_snowman_exemplar.png"" height=""300"" width=""300""></img>
<p>One of these is also a fep.</p>",1,NA,NA,yellow_yarn_snowman_extension.png,blue_crepe_lamp_extension.png,red_foam_arch_extension.png,NA,NA
146,4,NA,9373,34,survey-text,7,29171,Macintosh,NA,NA,NA,NA,NA,NA,"{""extensionLeftImg_exemplar_commonalities"":""shape""}",NA,red_crepe_snowman_exemplar.png,yellow_yarn_snowman_extension.png,NA,NA,NA,NA
146,4,NA,9839,34,survey-text,8,39013,Macintosh,NA,NA,NA,NA,NA,NA,"{""extensionCenterImg_exemplar_commonalities"":""material and texture""}",NA,red_crepe_snowman_exemplar.png,NA,blue_crepe_lamp_extension.png,NA,NA,NA
146,4,NA,3115,34,survey-text,9,42131,Macintosh,NA,NA,NA,NA,NA,NA,"{""extensionRightImg_exemplar_commonalities"":""color""}",NA,red_crepe_snowman_exemplar.png,NA,NA,red_foam_arch_extension.png,NA,NA
146,4,"[{""page_index"":0,""viewing_time"":2916}]",2916,34,instructions,10,45049,Macintosh,NA,NA,NA,NA,NA,NA,NA,NA,NA,NA,NA,NA,NA,NA
146,4,NA,3700,34,survey-text,11,48751,Macintosh,NA,NA,NA,NA,NA,NA,"{""Age"":""46""}",NA,NA,NA,NA,NA,NA,NA
146,4,NA,5712,34,survey-multi-choice,12,54466,Macintosh,NA,NA,NA,NA,NA,NA,"{""BornUSA"":""Yes"",""ChildhoodUSA"":""Yes"",""CurrentUSA"":""Yes""}",NA,NA,NA,NA,NA,"[0,1,2]",NA
146,4,NA,12930,34,survey-text,13,67405,Macintosh,NA,NA,NA,NA,NA,NA,"{""CurrentZipcode"":""730"",""ChildhoodZipcode"":""yes""}",NA,NA,NA,NA,NA,NA,NA
146,4,NA,29760,34,survey-text,14,97169,Macintosh,NA,NA,NA,NA,NA,NA,"{""FirstLanguage"":""english"",""AllLanguages"":""english, spanish(non fluent), german(non fluent)""}",NA,NA,NA,NA,NA,NA,NA
146,4,NA,7339,34,html-slider-response,15,104511,Macintosh,NA,NA,NA,NA,NA,<p>How would you describe the location <b>where you currently live</b>?</p>,52,NA,NA,NA,NA,NA,NA,50
146,4,NA,5408,34,html-slider-response,16,109921,Macintosh,NA,NA,NA,NA,NA,"<p>How would you describe the location <b>where you grew up</b> (if multiple, choose the one that you spent the most time in before 18 years old)?</p>",42,NA,NA,NA,NA,NA,NA,50
146,4,"[{""page_index"":0,""viewing_time"":16321}]",16321,34,instructions,17,126243,Macintosh,NA,NA,NA,NA,NA,NA,NA,NA,NA,NA,NA,NA,NA,NA
195,44,"[{""page_index"":0,""viewing_time"":3865}]",3865,37,instructions,0,3866,WebKit,NA,NA,NA,NA,NA,NA,NA,NA,NA,NA,NA,NA,NA,NA
195,44,NA,NA,37,fullscreen,1,7561,WebKit,TRUE,NA,NA,NA,NA,NA,NA,NA,NA,NA,NA,NA,NA,NA
195,44,"[{""page_index"":0,""viewing_time"":4741}]",4742,37,instructions,2,12303,WebKit,NA,NA,NA,NA,NA,NA,NA,NA,NA,NA,NA,NA,NA,NA
195,44,NA,NA,37,preload,3,12438,WebKit,TRUE,FALSE,[],[],[],NA,NA,NA,NA,NA,NA,NA,NA,NA
195,44,NA,null,37,html-button-response,4,17452,WebKit,NA,NA,NA,NA,NA,"<p>This is a coba.</p> 
<img src=""yellow_foam_lamp_exemplar.png"" height=""300"" width=""300""></img>",null,coba,yellow_foam_lamp_exemplar.png,NA,NA,NA,NA,NA
195,44,NA,NA,37,preload,5,17453,WebKit,TRUE,FALSE,[],[],[],NA,NA,NA,NA,NA,NA,NA,NA,NA
195,44,NA,16281,37,html-button-response,6,33735,WebKit,NA,NA,NA,NA,NA,"<p>This is a coba.</p> 
<img src=""yellow_foam_lamp_exemplar.png"" height=""300"" width=""300""></img>
<p>One of these is also a coba.</p>",1,NA,NA,red_foam_arch_extension.png,blue_crepe_lamp_extension.png,yellow_yarn_snowman_extension.png,NA,NA
195,44,NA,53640,37,survey-text,7,87381,WebKit,NA,NA,NA,NA,NA,NA,"{""extensionLeftImg_exemplar_commonalities"":""squiggly lines""}",NA,yellow_foam_lamp_exemplar.png,red_foam_arch_extension.png,NA,NA,NA,NA
195,44,NA,12939,37,survey-text,8,100324,WebKit,NA,NA,NA,NA,NA,NA,"{""extensionCenterImg_exemplar_commonalities"":""shape""}",NA,yellow_foam_lamp_exemplar.png,NA,blue_crepe_lamp_extension.png,NA,NA,NA
195,44,NA,10549,37,survey-text,9,110877,WebKit,NA,NA,NA,NA,NA,NA,"{""extensionRightImg_exemplar_commonalities"":""color yellow""}",NA,yellow_foam_lamp_exemplar.png,NA,NA,yellow_yarn_snowman_extension.png,NA,NA
195,44,"[{""page_index"":0,""viewing_time"":29381}]",29381,37,instructions,10,140258,WebKit,NA,NA,NA,NA,NA,NA,NA,NA,NA,NA,NA,NA,NA,NA
195,44,NA,4027,37,survey-text,11,144290,WebKit,NA,NA,NA,NA,NA,NA,"{""Age"":""47""}",NA,NA,NA,NA,NA,NA,NA
195,44,NA,31222,37,survey-multi-choice,12,175514,WebKit,NA,NA,NA,NA,NA,NA,"{""BornUSA"":""Yes"",""ChildhoodUSA"":""Yes"",""CurrentUSA"":""Yes""}",NA,NA,NA,NA,NA,"[0,1,2]",NA
195,44,NA,40792,37,survey-text,13,216321,WebKit,NA,NA,NA,NA,NA,NA,"{""CurrentZipcode"":""379"",""ChildhoodZipcode"":""379""}",NA,NA,NA,NA,NA,NA,NA
195,44,NA,12518,37,survey-text,14,228843,WebKit,NA,NA,NA,NA,NA,NA,"{""FirstLanguage"":""english"",""AllLanguages"":""english""}",NA,NA,NA,NA,NA,NA,NA
195,44,NA,11555,37,html-slider-response,15,240400,WebKit,NA,NA,NA,NA,NA,<p>How would you describe the location <b>where you currently live</b>?</p>,49,NA,NA,NA,NA,NA,NA,50
195,44,NA,11308,37,html-slider-response,16,251710,WebKit,NA,NA,NA,NA,NA,"<p>How would you describe the location <b>where you grew up</b> (if multiple, choose the one that you spent the most time in before 18 years old)?</p>",37,NA,NA,NA,NA,NA,NA,50
195,44,"[{""page_index"":0,""viewing_time"":3231}]",3231,37,instructions,17,254942,WebKit,NA,NA,NA,NA,NA,NA,NA,NA,NA,NA,NA,NA,NA,NA
125,45,"[{""page_index"":0,""viewing_time"":7971}]",7971,39,instructions,0,7972,Macintosh,NA,NA,NA,NA,NA,NA,NA,NA,NA,NA,NA,NA,NA,NA
125,45,NA,NA,39,fullscreen,1,9949,Macintosh,TRUE,NA,NA,NA,NA,NA,NA,NA,NA,NA,NA,NA,NA,NA
125,45,"[{""page_index"":0,""viewing_time"":1541}]",1541,39,instructions,2,11491,Macintosh,NA,NA,NA,NA,NA,NA,NA,NA,NA,NA,NA,NA,NA,NA
125,45,NA,NA,39,preload,3,11731,Macintosh,TRUE,FALSE,[],[],[],NA,NA,NA,NA,NA,NA,NA,NA,NA
125,45,NA,null,39,html-button-response,4,16733,Macintosh,NA,NA,NA,NA,NA,"<p>This is a coba.</p> 
<img src=""yellow_foam_lamp_exemplar.png"" height=""300"" width=""300""></img>",null,coba,yellow_foam_lamp_exemplar.png,NA,NA,NA,NA,NA
125,45,NA,NA,39,preload,5,16737,Macintosh,TRUE,FALSE,[],[],[],NA,NA,NA,NA,NA,NA,NA,NA,NA
125,45,NA,8776,39,html-button-response,6,25514,Macintosh,NA,NA,NA,NA,NA,"<p>This is a coba.</p> 
<img src=""yellow_foam_lamp_exemplar.png"" height=""300"" width=""300""></img>
<p>One of these is also a coba.</p>",1,NA,NA,yellow_yarn_snowman_extension.png,red_foam_arch_extension.png,blue_crepe_lamp_extension.png,NA,NA
125,45,NA,8235,39,survey-text,7,33753,Macintosh,NA,NA,NA,NA,NA,NA,"{""extensionLeftImg_exemplar_commonalities"":""They're both yellow""}",NA,yellow_foam_lamp_exemplar.png,yellow_yarn_snowman_extension.png,NA,NA,NA,NA
125,45,NA,9397,39,survey-text,8,43153,Macintosh,NA,NA,NA,NA,NA,NA,"{""extensionCenterImg_exemplar_commonalities"":""They both have wavy stripes""}",NA,yellow_foam_lamp_exemplar.png,NA,red_foam_arch_extension.png,NA,NA,NA
125,45,NA,5317,39,survey-text,9,48472,Macintosh,NA,NA,NA,NA,NA,NA,"{""extensionRightImg_exemplar_commonalities"":""they're the same shape""}",NA,yellow_foam_lamp_exemplar.png,NA,NA,blue_crepe_lamp_extension.png,NA,NA
125,45,"[{""page_index"":0,""viewing_time"":1334}]",1335,39,instructions,10,49808,Macintosh,NA,NA,NA,NA,NA,NA,NA,NA,NA,NA,NA,NA,NA,NA
125,45,NA,2534,39,survey-text,11,52354,Macintosh,NA,NA,NA,NA,NA,NA,"{""Age"":""33""}",NA,NA,NA,NA,NA,NA,NA
125,45,NA,5838,39,survey-multi-choice,12,58196,Macintosh,NA,NA,NA,NA,NA,NA,"{""BornUSA"":""Yes"",""ChildhoodUSA"":""Yes"",""CurrentUSA"":""Yes""}",NA,NA,NA,NA,NA,"[0,1,2]",NA
125,45,NA,24678,39,survey-text,13,82891,Macintosh,NA,NA,NA,NA,NA,NA,"{""CurrentZipcode"":""115"",""ChildhoodZipcode"":""115""}",NA,NA,NA,NA,NA,NA,NA
125,45,NA,6288,39,survey-text,14,89187,Macintosh,NA,NA,NA,NA,NA,NA,"{""FirstLanguage"":""English"",""AllLanguages"":""English""}",NA,NA,NA,NA,NA,NA,NA
125,45,NA,10160,39,html-slider-response,15,99349,Macintosh,NA,NA,NA,NA,NA,<p>How would you describe the location <b>where you currently live</b>?</p>,75,NA,NA,NA,NA,NA,NA,50
125,45,NA,3856,39,html-slider-response,16,103209,Macintosh,NA,NA,NA,NA,NA,"<p>How would you describe the location <b>where you grew up</b> (if multiple, choose the one that you spent the most time in before 18 years old)?</p>",68,NA,NA,NA,NA,NA,NA,50
125,45,"[{""page_index"":0,""viewing_time"":3225}]",3225,39,instructions,17,106435,Macintosh,NA,NA,NA,NA,NA,NA,NA,NA,NA,NA,NA,NA,NA,NA
197,18,"[{""page_index"":0,""viewing_time"":1760}]",1760,42,instructions,0,1762,WebKit,NA,NA,NA,NA,NA,NA,NA,NA,NA,NA,NA,NA,NA,NA
197,18,NA,NA,42,fullscreen,1,4070,WebKit,TRUE,NA,NA,NA,NA,NA,NA,NA,NA,NA,NA,NA,NA,NA
197,18,"[{""page_index"":0,""viewing_time"":1267}]",1268,42,instructions,2,5339,WebKit,NA,NA,NA,NA,NA,NA,NA,NA,NA,NA,NA,NA,NA,NA
197,18,NA,NA,42,preload,3,5766,WebKit,TRUE,FALSE,[],[],[],NA,NA,NA,NA,NA,NA,NA,NA,NA
197,18,NA,null,42,html-button-response,4,10770,WebKit,NA,NA,NA,NA,NA,"<p>This is a fep.</p> 
<img src=""blue_yarn_arch_exemplar.png"" height=""300"" width=""300""></img>",null,fep,blue_yarn_arch_exemplar.png,NA,NA,NA,NA,NA
197,18,NA,NA,42,preload,5,10771,WebKit,TRUE,FALSE,[],[],[],NA,NA,NA,NA,NA,NA,NA,NA,NA
197,18,NA,4010,42,html-button-response,6,14782,WebKit,NA,NA,NA,NA,NA,"<p>This is a fep.</p> 
<img src=""blue_yarn_arch_exemplar.png"" height=""300"" width=""300""></img>
<p>One of these is also a fep.</p>",1,NA,NA,blue_crepe_lamp_extension.png,yellow_yarn_snowman_extension.png,red_foam_arch_extension.png,NA,NA
197,18,NA,4720,42,survey-text,7,19511,WebKit,NA,NA,NA,NA,NA,NA,"{""extensionLeftImg_exemplar_commonalities"":""blue""}",NA,blue_yarn_arch_exemplar.png,blue_crepe_lamp_extension.png,NA,NA,NA,NA
197,18,NA,4426,42,survey-text,8,23942,WebKit,NA,NA,NA,NA,NA,NA,"{""extensionCenterImg_exemplar_commonalities"":""yarn""}",NA,blue_yarn_arch_exemplar.png,NA,yellow_yarn_snowman_extension.png,NA,NA,NA
197,18,NA,3280,42,survey-text,9,27227,WebKit,NA,NA,NA,NA,NA,NA,"{""extensionRightImg_exemplar_commonalities"":""shape""}",NA,blue_yarn_arch_exemplar.png,NA,NA,red_foam_arch_extension.png,NA,NA
197,18,"[{""page_index"":0,""viewing_time"":2029}]",2029,42,instructions,10,29257,WebKit,NA,NA,NA,NA,NA,NA,NA,NA,NA,NA,NA,NA,NA,NA
197,18,NA,3916,42,survey-text,11,33179,WebKit,NA,NA,NA,NA,NA,NA,"{""Age"":""23""}",NA,NA,NA,NA,NA,NA,NA
197,18,NA,7383,42,survey-multi-choice,12,40564,WebKit,NA,NA,NA,NA,NA,NA,"{""BornUSA"":""Yes"",""ChildhoodUSA"":""Yes"",""CurrentUSA"":""Yes""}",NA,NA,NA,NA,NA,"[0,1,2]",NA
197,18,NA,10847,42,survey-text,13,51418,WebKit,NA,NA,NA,NA,NA,NA,"{""CurrentZipcode"":""493"",""ChildhoodZipcode"":""493""}",NA,NA,NA,NA,NA,NA,NA
197,18,NA,11152,42,survey-text,14,62575,WebKit,NA,NA,NA,NA,NA,NA,"{""FirstLanguage"":""english"",""AllLanguages"":""english""}",NA,NA,NA,NA,NA,NA,NA
197,18,NA,7162,42,html-slider-response,15,69743,WebKit,NA,NA,NA,NA,NA,<p>How would you describe the location <b>where you currently live</b>?</p>,58,NA,NA,NA,NA,NA,NA,50
197,18,NA,4365,42,html-slider-response,16,74111,WebKit,NA,NA,NA,NA,NA,"<p>How would you describe the location <b>where you grew up</b> (if multiple, choose the one that you spent the most time in before 18 years old)?</p>",53,NA,NA,NA,NA,NA,NA,50
197,18,"[{""page_index"":0,""viewing_time"":9161}]",9161,42,instructions,17,83275,WebKit,NA,NA,NA,NA,NA,NA,NA,NA,NA,NA,NA,NA,NA,NA
96,13,"[{""page_index"":0,""viewing_time"":1909}]",1909,4,instructions,0,1914,Macintosh,NA,NA,NA,NA,NA,NA,NA,NA,NA,NA,NA,NA,NA,NA
96,13,NA,NA,4,fullscreen,1,4251,Macintosh,TRUE,NA,NA,NA,NA,NA,NA,NA,NA,NA,NA,NA,NA,NA
96,13,"[{""page_index"":0,""viewing_time"":2243}]",2244,4,instructions,2,6496,Macintosh,NA,NA,NA,NA,NA,NA,NA,NA,NA,NA,NA,NA,NA,NA
96,13,NA,NA,4,preload,3,7534,Macintosh,TRUE,FALSE,[],[],[],NA,NA,NA,NA,NA,NA,NA,NA,NA
96,13,NA,null,4,html-button-response,4,12540,Macintosh,NA,NA,NA,NA,NA,"<p>This is a fep.</p> 
<img src=""blue_yarn_arch_exemplar.png"" height=""300"" width=""300""></img>",null,fep,blue_yarn_arch_exemplar.png,NA,NA,NA,NA,NA
96,13,NA,NA,4,preload,5,12542,Macintosh,TRUE,FALSE,[],[],[],NA,NA,NA,NA,NA,NA,NA,NA,NA
96,13,NA,4304,4,html-button-response,6,16847,Macintosh,NA,NA,NA,NA,NA,"<p>This is a fep.</p> 
<img src=""blue_yarn_arch_exemplar.png"" height=""300"" width=""300""></img>
<p>One of these is also a fep.</p>",0,NA,NA,red_foam_arch_extension.png,yellow_yarn_snowman_extension.png,blue_crepe_lamp_extension.png,NA,NA
96,13,NA,9669,4,survey-text,7,26532,Macintosh,NA,NA,NA,NA,NA,NA,"{""extensionLeftImg_exemplar_commonalities"":""The shape of them. ""}",NA,blue_yarn_arch_exemplar.png,red_foam_arch_extension.png,NA,NA,NA,NA
96,13,NA,6395,4,survey-text,8,32933,Macintosh,NA,NA,NA,NA,NA,NA,"{""extensionCenterImg_exemplar_commonalities"":""The material. ""}",NA,blue_yarn_arch_exemplar.png,NA,yellow_yarn_snowman_extension.png,NA,NA,NA
96,13,NA,5629,4,survey-text,9,38566,Macintosh,NA,NA,NA,NA,NA,NA,"{""extensionRightImg_exemplar_commonalities"":""The color. ""}",NA,blue_yarn_arch_exemplar.png,NA,NA,blue_crepe_lamp_extension.png,NA,NA
96,13,"[{""page_index"":0,""viewing_time"":2196}]",2196,4,instructions,10,40765,Macintosh,NA,NA,NA,NA,NA,NA,NA,NA,NA,NA,NA,NA,NA,NA
96,13,NA,2365,4,survey-text,11,43132,Macintosh,NA,NA,NA,NA,NA,NA,"{""Age"":""24""}",NA,NA,NA,NA,NA,NA,NA
96,13,NA,13584,4,survey-multi-choice,12,56718,Macintosh,NA,NA,NA,NA,NA,NA,"{""BornUSA"":""Yes"",""ChildhoodUSA"":""Yes"",""CurrentUSA"":""Yes""}",NA,NA,NA,NA,NA,"[0,1,2]",NA
96,13,NA,11324,4,survey-text,13,68053,Macintosh,NA,NA,NA,NA,NA,NA,"{""CurrentZipcode"":""483"",""ChildhoodZipcode"":""483""}",NA,NA,NA,NA,NA,NA,NA
96,13,NA,5696,4,survey-text,14,73753,Macintosh,NA,NA,NA,NA,NA,NA,"{""FirstLanguage"":""English"",""AllLanguages"":""English""}",NA,NA,NA,NA,NA,NA,NA
96,13,NA,3793,4,html-slider-response,15,77553,Macintosh,NA,NA,NA,NA,NA,<p>How would you describe the location <b>where you currently live</b>?</p>,50,NA,NA,NA,NA,NA,NA,50
